time,ax,ay,az,
0,-0.016166383400559425,0.008382569067180157,0.01796264760196209,
0.008,-0.016166383400559425,0.008382569067180157,0.01796264760196209,
0.015,-0.016166383400559425,0.008382569067180157,0.01796264760196209,
0.022,-0.016166383400559425,0.008382569067180157,0.01796264760196209,
0.028,-0.016166383400559425,0.008382569067180157,0.01796264760196209,
0.038,0.004191284533590078,-0.007185058668255806,-0.014370117336511612,
0.046,0.004191284533590078,-0.007185058668255806,-0.014370117336511612,
0.053,0.004191284533590078,-0.007185058668255806,-0.014370117336511612,
0.059,0.004191284533590078,-0.007185058668255806,-0.014370117336511612,
0.065,0.004191284533590078,-0.007185058668255806,-0.014370117336511612,
0.074,0.004191284533590078,-0.007185058668255806,-0.014370117336511612,
0.08,0.004191284533590078,-0.007185058668255806,-0.014370117336511612,
0.084,0.004191284533590078,-0.007185058668255806,-0.014370117336511612,
0.09,-0.0173638928681612,-0.019160157069563866,-0.007185058668255806,
0.095,-0.0173638928681612,-0.019160157069563866,-0.007185058668255806,
0.101,-0.0173638928681612,-0.019160157069563866,-0.007185058668255806,
0.107,-0.0173638928681612,-0.019160157069563866,-0.007185058668255806,
0.112,-0.0173638928681612,-0.019160157069563866,-0.007185058668255806,
0.117,-0.0173638928681612,-0.019160157069563866,-0.007185058668255806,
0.122,-0.0173638928681612,-0.019160157069563866,-0.007185058668255806,
0.126,-0.0173638928681612,-0.019160157069563866,-0.007185058668255806,
0.131,-0.0173638928681612,-0.019160157069563866,-0.007185058668255806,
0.135,-0.0173638928681612,-0.019160157069563866,-0.007185058668255806,
0.141,-0.016166383400559425,-0.00598754920065403,-0.002395019633695483,
0.145,-0.016166383400559425,-0.00598754920065403,-0.002395019633695483,
0.154,-0.016166383400559425,-0.00598754920065403,-0.002395019633695483,
0.159,-0.016166383400559425,-0.00598754920065403,-0.002395019633695483,
0.164,-0.016166383400559425,-0.00598754920065403,-0.002395019633695483,
0.171,-0.016166383400559425,-0.00598754920065403,-0.002395019633695483,
0.177,-0.016166383400559425,-0.00598754920065403,-0.002395019633695483,
0.182,-0.016166383400559425,-0.00598754920065403,-0.002395019633695483,
0.189,-0.004191284533590078,0.0011975098168477416,-0.03592529520392418,
0.195,-0.004191284533590078,0.0011975098168477416,-0.03592529520392418,
0.201,-0.004191284533590078,0.0011975098168477416,-0.03592529520392418,
0.208,-0.004191284533590078,0.0011975098168477416,-0.03592529520392418,
0.213,-0.004191284533590078,0.0011975098168477416,-0.03592529520392418,
0.219,-0.004191284533590078,0.0011975098168477416,-0.03592529520392418,
0.224,-0.004191284533590078,0.0011975098168477416,-0.03592529520392418,
0.23,-0.004191284533590078,0.0011975098168477416,-0.03592529520392418,
0.236,-0.004191284533590078,-0.004790039267390966,0.019160157069563866,
0.242,-0.004191284533590078,-0.004790039267390966,0.019160157069563866,
0.247,-0.004191284533590078,-0.004790039267390966,0.019160157069563866,
0.253,-0.004191284533590078,-0.004790039267390966,0.019160157069563866,
0.259,-0.004191284533590078,-0.004790039267390966,0.019160157069563866,
0.265,-0.004191284533590078,-0.004790039267390966,0.019160157069563866,
0.273,-0.004191284533590078,-0.004790039267390966,0.019160157069563866,
0.281,-0.004191284533590078,-0.004790039267390966,0.019160157069563866,
0.29,-0.011376343667507172,0.007185058668255806,0,
0.295,-0.011376343667507172,0.007185058668255806,0,
0.302,-0.011376343667507172,0.007185058668255806,0,
0.307,-0.011376343667507172,0.007185058668255806,0,
0.313,-0.011376343667507172,0.007185058668255806,0,
0.32,-0.011376343667507172,0.007185058668255806,0,
0.326,-0.011376343667507172,0.007185058668255806,0,
0.331,-0.011376343667507172,0.007185058668255806,0,
0.338,0.006586303934454918,0.03233276680111885,0.015567627735435963,
0.343,0.006586303934454918,0.03233276680111885,0.015567627735435963,
0.349,0.006586303934454918,0.03233276680111885,0.015567627735435963,
0.355,0.006586303934454918,0.03233276680111885,0.015567627735435963,
0.36,0.006586303934454918,0.03233276680111885,0.015567627735435963,
0.366,0.006586303934454918,0.03233276680111885,0.015567627735435963,
0.372,0.006586303934454918,0.03233276680111885,0.015567627735435963,
0.377,0.006586303934454918,0.03233276680111885,0.015567627735435963,
0.383,0.006586303934454918,0.03233276680111885,0.015567627735435963,
0.389,-0.0173638928681612,-0.022752687335014343,0.013172607868909836,
0.394,-0.0173638928681612,-0.022752687335014343,0.013172607868909836,
0.4,-0.0173638928681612,-0.022752687335014343,0.013172607868909836,
0.408,-0.0173638928681612,-0.022752687335014343,0.013172607868909836,
0.413,-0.0173638928681612,-0.022752687335014343,0.013172607868909836,
0.42,-0.0173638928681612,-0.022752687335014343,0.013172607868909836,
0.428,-0.0173638928681612,-0.022752687335014343,0.013172607868909836,
0.433,-0.034129031002521515,0.01197509840130806,0.003592529334127903,
0.441,-0.034129031002521515,0.01197509840130806,0.003592529334127903,
0.447,-0.034129031002521515,0.01197509840130806,0.003592529334127903,
0.454,-0.034129031002521515,0.01197509840130806,0.003592529334127903,
0.459,-0.034129031002521515,0.01197509840130806,0.003592529334127903,
0.465,-0.034129031002521515,0.01197509840130806,0.003592529334127903,
0.472,-0.034129031002521515,0.01197509840130806,0.003592529334127903,
0.477,-0.034129031002521515,0.01197509840130806,0.003592529334127903,
0.483,-0.034129031002521515,0.01197509840130806,0.003592529334127903,
0.489,-0.016166383400559425,-0.003592529334127903,-0.0011975098168477416,
0.495,-0.016166383400559425,-0.003592529334127903,-0.0011975098168477416,
0.501,-0.016166383400559425,-0.003592529334127903,-0.0011975098168477416,
0.507,-0.016166383400559425,-0.003592529334127903,-0.0011975098168477416,
0.512,-0.016166383400559425,-0.003592529334127903,-0.0011975098168477416,
0.518,-0.016166383400559425,-0.003592529334127903,-0.0011975098168477416,
0.525,-0.016166383400559425,-0.003592529334127903,-0.0011975098168477416,
0.53,-0.016166383400559425,-0.003592529334127903,-0.0011975098168477416,
0.535,-0.010178833268582821,-0.007185058668255806,0.031135255470871925,
0.542,-0.010178833268582821,-0.007185058668255806,0.031135255470871925,
0.547,-0.010178833268582821,-0.007185058668255806,0.031135255470871925,
0.553,-0.010178833268582821,-0.007185058668255806,0.031135255470871925,
0.558,-0.010178833268582821,-0.007185058668255806,0.031135255470871925,
0.564,-0.010178833268582821,-0.007185058668255806,0.031135255470871925,
0.569,-0.010178833268582821,-0.007185058668255806,0.031135255470871925,
0.574,-0.010178833268582821,-0.007185058668255806,0.031135255470871925,
0.579,-0.010178833268582821,-0.007185058668255806,0.031135255470871925,
0.585,-0.014968873001635075,0.007185058668255806,0.003592529334127903,
0.59,-0.014968873001635075,0.007185058668255806,0.003592529334127903,
0.595,-0.014968873001635075,0.007185058668255806,0.003592529334127903,
0.6,-0.014968873001635075,0.007185058668255806,0.003592529334127903,
0.606,-0.014968873001635075,0.007185058668255806,0.003592529334127903,
0.611,-0.014968873001635075,0.007185058668255806,0.003592529334127903,
0.616,-0.014968873001635075,0.007185058668255806,0.003592529334127903,
0.621,-0.014968873001635075,0.007185058668255806,0.003592529334127903,
0.627,-0.014968873001635075,0.007185058668255806,0.003592529334127903,
0.633,-0.004191284533590078,-0.00598754920065403,0.008382569067180157,
0.638,-0.004191284533590078,-0.00598754920065403,0.008382569067180157,
0.643,-0.004191284533590078,-0.00598754920065403,0.008382569067180157,
0.648,-0.004191284533590078,-0.00598754920065403,0.008382569067180157,
0.653,-0.004191284533590078,-0.00598754920065403,0.008382569067180157,
0.658,-0.004191284533590078,-0.00598754920065403,0.008382569067180157,
0.663,-0.004191284533590078,-0.00598754920065403,0.008382569067180157,
0.668,-0.004191284533590078,-0.00598754920065403,0.008382569067180157,
0.672,-0.004191284533590078,-0.00598754920065403,0.008382569067180157,
0.678,-0.004191284533590078,-0.00598754920065403,0.008382569067180157,
0.683,-0.012573853135108948,0.004790039267390966,-0.002395019633695483,
0.689,-0.012573853135108948,0.004790039267390966,-0.002395019633695483,
0.695,-0.012573853135108948,0.004790039267390966,-0.002395019633695483,
0.7,-0.012573853135108948,0.004790039267390966,-0.002395019633695483,
0.706,-0.012573853135108948,0.004790039267390966,-0.002395019633695483,
0.711,-0.012573853135108948,0.004790039267390966,-0.002395019633695483,
0.716,-0.012573853135108948,0.004790039267390966,-0.002395019633695483,
0.721,-0.012573853135108948,0.004790039267390966,-0.002395019633695483,
0.726,-0.012573853135108948,0.004790039267390966,-0.002395019633695483,
0.731,-0.012573853135108948,0.004790039267390966,-0.002395019633695483,
0.736,-0.05328918620944023,0.00598754920065403,-0.00598754920065403,
0.742,-0.05328918620944023,0.00598754920065403,-0.00598754920065403,
0.746,-0.05328918620944023,0.00598754920065403,-0.00598754920065403,
0.752,-0.05328918620944023,0.00598754920065403,-0.00598754920065403,
0.757,-0.05328918620944023,0.00598754920065403,-0.00598754920065403,
0.762,-0.05328918620944023,0.00598754920065403,-0.00598754920065403,
0.767,-0.05328918620944023,0.00598754920065403,-0.00598754920065403,
0.773,-0.05328918620944023,0.00598754920065403,-0.00598754920065403,
0.779,-0.05328918620944023,0.00598754920065403,-0.00598754920065403,
0.784,0.010178833268582821,0.014370117336511612,0.015567627735435963,
0.791,0.010178833268582821,0.014370117336511612,0.015567627735435963,
0.796,0.010178833268582821,0.014370117336511612,0.015567627735435963,
0.801,0.010178833268582821,0.014370117336511612,0.015567627735435963,
0.806,0.010178833268582821,0.014370117336511612,0.015567627735435963,
0.811,0.010178833268582821,0.014370117336511612,0.015567627735435963,
0.817,0.010178833268582821,0.014370117336511612,0.015567627735435963,
0.822,0.010178833268582821,0.014370117336511612,0.015567627735435963,
0.827,0.010178833268582821,0.014370117336511612,0.015567627735435963,
0.832,-0.022153930738568306,-0.022752687335014343,-0.0011975098168477416,
0.838,-0.022153930738568306,-0.022752687335014343,-0.0011975098168477416,
0.843,-0.022153930738568306,-0.022752687335014343,-0.0011975098168477416,
0.848,-0.022153930738568306,-0.022752687335014343,-0.0011975098168477416,
0.855,-0.022153930738568306,-0.022752687335014343,-0.0011975098168477416,
0.86,-0.022153930738568306,-0.022752687335014343,-0.0011975098168477416,
0.867,-0.022153930738568306,-0.022752687335014343,-0.0011975098168477416,
0.872,-0.022153930738568306,-0.022752687335014343,-0.0011975098168477416,
0.88,-0.022153930738568306,-0.022752687335014343,-0.0011975098168477416,
0.885,-0.004191284533590078,0.004790039267390966,0.003592529334127903,
0.89,-0.004191284533590078,0.004790039267390966,0.003592529334127903,
0.895,-0.004191284533590078,0.004790039267390966,0.003592529334127903,
0.9,-0.004191284533590078,0.004790039267390966,0.003592529334127903,
0.905,-0.004191284533590078,0.004790039267390966,0.003592529334127903,
0.91,-0.004191284533590078,0.004790039267390966,0.003592529334127903,
0.916,-0.004191284533590078,0.004790039267390966,0.003592529334127903,
0.92,-0.004191284533590078,0.004790039267390966,0.003592529334127903,
0.926,-0.004191284533590078,0.004790039267390966,0.003592529334127903,
0.93,-0.010178833268582821,0.007185058668255806,-0.01796264760196209,
0.935,-0.010178833268582821,0.007185058668255806,-0.01796264760196209,
0.94,-0.010178833268582821,0.007185058668255806,-0.01796264760196209,
0.945,-0.010178833268582821,0.007185058668255806,-0.01796264760196209,
0.95,-0.010178833268582821,0.007185058668255806,-0.01796264760196209,
0.955,-0.010178833268582821,0.007185058668255806,-0.01796264760196209,
0.96,-0.010178833268582821,0.007185058668255806,-0.01796264760196209,
0.966,-0.010178833268582821,0.007185058668255806,-0.01796264760196209,
0.972,-0.010178833268582821,0.007185058668255806,-0.01796264760196209,
0.977,-0.010178833268582821,0.007185058668255806,-0.01796264760196209,
0.982,-0.024548951536417007,-0.00598754920065403,0,
0.987,-0.024548951536417007,-0.00598754920065403,0,
0.992,-0.024548951536417007,-0.00598754920065403,0,
0.996,-0.024548951536417007,-0.00598754920065403,0,
1.001,-0.024548951536417007,-0.00598754920065403,0,
1.006,-0.024548951536417007,-0.00598754920065403,0,
1.011,-0.024548951536417007,-0.00598754920065403,0,
1.016,-0.024548951536417007,-0.00598754920065403,0,
1.021,-0.024548951536417007,-0.00598754920065403,0,
1.026,-0.024548951536417007,-0.00598754920065403,0,
1.031,-0.030536500737071037,-0.007185058668255806,0.01197509840130806,
1.037,-0.030536500737071037,-0.007185058668255806,0.01197509840130806,
1.042,-0.030536500737071037,-0.007185058668255806,0.01197509840130806,
1.047,-0.030536500737071037,-0.007185058668255806,0.01197509840130806,
1.053,-0.030536500737071037,-0.007185058668255806,0.01197509840130806,
1.057,-0.030536500737071037,-0.007185058668255806,0.01197509840130806,
1.063,-0.030536500737071037,-0.007185058668255806,0.01197509840130806,
1.069,-0.030536500737071037,-0.007185058668255806,0.01197509840130806,
1.074,-0.030536500737071037,-0.007185058668255806,0.01197509840130806,
1.079,-0.0017962646670639515,-0.0011975098168477416,0.02395019680261612,
1.084,-0.0017962646670639515,-0.0011975098168477416,0.02395019680261612,
1.09,-0.0017962646670639515,-0.0011975098168477416,0.02395019680261612,
1.094,-0.0017962646670639515,-0.0011975098168477416,0.02395019680261612,
1.098,-0.0017962646670639515,-0.0011975098168477416,0.02395019680261612,
1.104,-0.0017962646670639515,-0.0011975098168477416,0.02395019680261612,
1.108,-0.0017962646670639515,-0.0011975098168477416,0.02395019680261612,
1.112,-0.0017962646670639515,-0.0011975098168477416,0.02395019680261612,
1.117,-0.0017962646670639515,-0.0011975098168477416,0.02395019680261612,
1.122,-0.0017962646670639515,-0.0011975098168477416,0.02395019680261612,
1.126,-0.0017962646670639515,-0.0011975098168477416,0.02395019680261612,
1.131,-0.02095642127096653,-0.0011975098168477416,0.004790039267390966,
1.136,-0.02095642127096653,-0.0011975098168477416,0.004790039267390966,
1.141,-0.02095642127096653,-0.0011975098168477416,0.004790039267390966,
1.145,-0.02095642127096653,-0.0011975098168477416,0.004790039267390966,
1.15,-0.02095642127096653,-0.0011975098168477416,0.004790039267390966,
1.155,-0.02095642127096653,-0.0011975098168477416,0.004790039267390966,
1.16,-0.02095642127096653,-0.0011975098168477416,0.004790039267390966,
1.164,-0.02095642127096653,-0.0011975098168477416,0.004790039267390966,
1.169,-0.02095642127096653,-0.0011975098168477416,0.004790039267390966,
1.173,-0.02095642127096653,-0.0011975098168477416,0.004790039267390966,
1.178,-0.028141479939222336,-0.004790039267390966,0.013172607868909836,
1.184,-0.028141479939222336,-0.004790039267390966,0.013172607868909836,
1.189,-0.028141479939222336,-0.004790039267390966,0.013172607868909836,
1.194,-0.028141479939222336,-0.004790039267390966,0.013172607868909836,
1.198,-0.028141479939222336,-0.004790039267390966,0.013172607868909836,
1.204,-0.028141479939222336,-0.004790039267390966,0.013172607868909836,
1.208,-0.028141479939222336,-0.004790039267390966,0.013172607868909836,
1.213,-0.028141479939222336,-0.004790039267390966,0.013172607868909836,
1.219,-0.028141479939222336,-0.004790039267390966,0.013172607868909836,
1.224,-0.028141479939222336,-0.004790039267390966,0.013172607868909836,
1.228,-0.010178833268582821,0.004790039267390966,0.01197509840130806,
1.232,-0.010178833268582821,0.004790039267390966,0.01197509840130806,
1.237,-0.010178833268582821,0.004790039267390966,0.01197509840130806,
1.242,-0.010178833268582821,0.004790039267390966,0.01197509840130806,
1.247,-0.010178833268582821,0.004790039267390966,0.01197509840130806,
1.251,-0.010178833268582821,0.004790039267390966,0.01197509840130806,
1.256,-0.010178833268582821,0.004790039267390966,0.01197509840130806,
1.261,-0.010178833268582821,0.004790039267390966,0.01197509840130806,
1.265,-0.010178833268582821,0.004790039267390966,0.01197509840130806,
1.271,-0.010178833268582821,0.004790039267390966,0.01197509840130806,
1.275,-0.010178833268582821,0.004790039267390966,0.01197509840130806,
1.28,-0.004191284533590078,0.002395019633695483,-0.008382569067180157,
1.284,-0.004191284533590078,0.002395019633695483,-0.008382569067180157,
1.29,-0.004191284533590078,0.002395019633695483,-0.008382569067180157,
1.294,-0.004191284533590078,0.002395019633695483,-0.008382569067180157,
1.298,-0.004191284533590078,0.002395019633695483,-0.008382569067180157,
1.304,-0.004191284533590078,0.002395019633695483,-0.008382569067180157,
1.309,-0.004191284533590078,0.002395019633695483,-0.008382569067180157,
1.313,-0.004191284533590078,0.002395019633695483,-0.008382569067180157,
1.318,-0.004191284533590078,0.002395019633695483,-0.008382569067180157,
1.323,-0.004191284533590078,0.002395019633695483,-0.008382569067180157,
1.328,-0.024548951536417007,-0.01197509840130806,-0.002395019633695483,
1.332,-0.024548951536417007,-0.01197509840130806,-0.002395019633695483,
1.337,-0.024548951536417007,-0.01197509840130806,-0.002395019633695483,
1.341,-0.024548951536417007,-0.01197509840130806,-0.002395019633695483,
1.345,-0.024548951536417007,-0.01197509840130806,-0.002395019633695483,
1.35,-0.024548951536417007,-0.01197509840130806,-0.002395019633695483,
1.355,-0.024548951536417007,-0.01197509840130806,-0.002395019633695483,
1.359,-0.024548951536417007,-0.01197509840130806,-0.002395019633695483,
1.364,-0.024548951536417007,-0.01197509840130806,-0.002395019633695483,
1.369,-0.024548951536417007,-0.01197509840130806,-0.002395019633695483,
1.374,-0.024548951536417007,-0.01197509840130806,-0.002395019633695483,
1.379,-0.019758911803364754,-0.025147706270217896,0.021555176004767418,
1.384,-0.019758911803364754,-0.025147706270217896,0.021555176004767418,
1.39,-0.019758911803364754,-0.025147706270217896,0.021555176004767418,
1.395,-0.019758911803364754,-0.025147706270217896,0.021555176004767418,
1.399,-0.019758911803364754,-0.025147706270217896,0.021555176004767418,
1.404,-0.019758911803364754,-0.025147706270217896,0.021555176004767418,
1.409,-0.019758911803364754,-0.025147706270217896,0.021555176004767418,
1.413,-0.019758911803364754,-0.025147706270217896,0.021555176004767418,
1.418,-0.019758911803364754,-0.025147706270217896,0.021555176004767418,
1.422,-0.019758911803364754,-0.025147706270217896,0.021555176004767418,
1.426,-0.022153930738568306,-0.007185058668255806,0.01197509840130806,
1.43,-0.022153930738568306,-0.007185058668255806,0.01197509840130806,
1.436,-0.022153930738568306,-0.007185058668255806,0.01197509840130806,
1.44,-0.022153930738568306,-0.007185058668255806,0.01197509840130806,
1.445,-0.022153930738568306,-0.007185058668255806,0.01197509840130806,
1.449,-0.022153930738568306,-0.007185058668255806,0.01197509840130806,
1.454,-0.022153930738568306,-0.007185058668255806,0.01197509840130806,
1.459,-0.022153930738568306,-0.007185058668255806,0.01197509840130806,
1.463,-0.022153930738568306,-0.007185058668255806,0.01197509840130806,
1.468,-0.022153930738568306,-0.007185058668255806,0.01197509840130806,
1.473,-0.022153930738568306,-0.007185058668255806,0.01197509840130806,
1.478,-0.02095642127096653,-0.0011975098168477416,0.022752687335014343,
1.482,-0.02095642127096653,-0.0011975098168477416,0.022752687335014343,
1.488,-0.02095642127096653,-0.0011975098168477416,0.022752687335014343,
1.493,-0.02095642127096653,-0.0011975098168477416,0.022752687335014343,
1.497,-0.02095642127096653,-0.0011975098168477416,0.022752687335014343,
1.502,-0.02095642127096653,-0.0011975098168477416,0.022752687335014343,
1.507,-0.02095642127096653,-0.0011975098168477416,0.022752687335014343,
1.511,-0.02095642127096653,-0.0011975098168477416,0.022752687335014343,
1.516,-0.02095642127096653,-0.0011975098168477416,0.022752687335014343,
1.521,-0.02095642127096653,-0.0011975098168477416,0.022752687335014343,
1.526,-0.006586303934454918,-0.008382569067180157,0.008382569067180157,
1.53,-0.006586303934454918,-0.008382569067180157,0.008382569067180157,
1.535,-0.006586303934454918,-0.008382569067180157,0.008382569067180157,
1.539,-0.006586303934454918,-0.008382569067180157,0.008382569067180157,
1.544,-0.006586303934454918,-0.008382569067180157,0.008382569067180157,
1.548,-0.006586303934454918,-0.008382569067180157,0.008382569067180157,
1.554,-0.006586303934454918,-0.008382569067180157,0.008382569067180157,
1.558,-0.006586303934454918,-0.008382569067180157,0.008382569067180157,
1.563,-0.006586303934454918,-0.008382569067180157,0.008382569067180157,
1.567,-0.006586303934454918,-0.008382569067180157,0.008382569067180157,
1.572,-0.006586303934454918,-0.008382569067180157,0.008382569067180157,
1.576,-0.02335144206881523,-0.003592529334127903,-0.01197509840130806,
1.581,-0.02335144206881523,-0.003592529334127903,-0.01197509840130806,
1.586,-0.02335144206881523,-0.003592529334127903,-0.01197509840130806,
1.591,-0.02335144206881523,-0.003592529334127903,-0.01197509840130806,
1.595,-0.02335144206881523,-0.003592529334127903,-0.01197509840130806,
1.6,-0.02335144206881523,-0.003592529334127903,-0.01197509840130806,
1.604,-0.02335144206881523,-0.003592529334127903,-0.01197509840130806,
1.609,-0.02335144206881523,-0.003592529334127903,-0.01197509840130806,
1.614,-0.02335144206881523,-0.003592529334127903,-0.01197509840130806,
1.618,-0.02335144206881523,-0.003592529334127903,-0.01197509840130806,
1.623,-0.02335144206881523,-0.003592529334127903,-0.01197509840130806,
1.627,-0.010178833268582821,-0.007185058668255806,-0.01796264760196209,
1.632,-0.010178833268582821,-0.007185058668255806,-0.01796264760196209,
1.636,-0.010178833268582821,-0.007185058668255806,-0.01796264760196209,
1.642,-0.010178833268582821,-0.007185058668255806,-0.01796264760196209,
1.646,-0.010178833268582821,-0.007185058668255806,-0.01796264760196209,
1.651,-0.010178833268582821,-0.007185058668255806,-0.01796264760196209,
1.656,-0.010178833268582821,-0.007185058668255806,-0.01796264760196209,
1.661,-0.010178833268582821,-0.007185058668255806,-0.01796264760196209,
1.666,-0.010178833268582821,-0.007185058668255806,-0.01796264760196209,
1.672,-0.010178833268582821,-0.007185058668255806,-0.01796264760196209,
1.677,-0.02933899126946926,-0.019160157069563866,0.01197509840130806,
1.681,-0.02933899126946926,-0.019160157069563866,0.01197509840130806,
1.687,-0.02933899126946926,-0.019160157069563866,0.01197509840130806,
1.692,-0.02933899126946926,-0.019160157069563866,0.01197509840130806,
1.696,-0.02933899126946926,-0.019160157069563866,0.01197509840130806,
1.701,-0.02933899126946926,-0.019160157069563866,0.01197509840130806,
1.706,-0.02933899126946926,-0.019160157069563866,0.01197509840130806,
1.71,-0.02933899126946926,-0.019160157069563866,0.01197509840130806,
1.714,-0.02933899126946926,-0.019160157069563866,0.01197509840130806,
1.72,-0.02933899126946926,-0.019160157069563866,0.01197509840130806,
1.725,-0.010178833268582821,-0.00598754920065403,-0.02634521573781967,
1.729,-0.010178833268582821,-0.00598754920065403,-0.02634521573781967,
1.734,-0.010178833268582821,-0.00598754920065403,-0.02634521573781967,
1.738,-0.010178833268582821,-0.00598754920065403,-0.02634521573781967,
1.743,-0.010178833268582821,-0.00598754920065403,-0.02634521573781967,
1.747,-0.010178833268582821,-0.00598754920065403,-0.02634521573781967,
1.753,-0.010178833268582821,-0.00598754920065403,-0.02634521573781967,
1.758,-0.010178833268582821,-0.00598754920065403,-0.02634521573781967,
1.762,-0.010178833268582821,-0.00598754920065403,-0.02634521573781967,
1.768,-0.010178833268582821,-0.00598754920065403,-0.02634521573781967,
1.773,-0.010178833268582821,-0.00598754920065403,-0.02634521573781967,
1.777,-0.018561402335762978,0.007185058668255806,-0.014370117336511612,
1.781,-0.018561402335762978,0.007185058668255806,-0.014370117336511612,
1.786,-0.018561402335762978,0.007185058668255806,-0.014370117336511612,
1.791,-0.018561402335762978,0.007185058668255806,-0.014370117336511612,
1.795,-0.018561402335762978,0.007185058668255806,-0.014370117336511612,
1.8,-0.018561402335762978,0.007185058668255806,-0.014370117336511612,
1.804,-0.018561402335762978,0.007185058668255806,-0.014370117336511612,
1.809,-0.018561402335762978,0.007185058668255806,-0.014370117336511612,
1.814,-0.018561402335762978,0.007185058668255806,-0.014370117336511612,
1.818,-0.018561402335762978,0.007185058668255806,-0.014370117336511612,
1.823,-0.002993774600327015,0.003592529334127903,0.009580078534781933,
1.828,-0.002993774600327015,0.003592529334127903,0.009580078534781933,
1.833,-0.002993774600327015,0.003592529334127903,0.009580078534781933,
1.838,-0.002993774600327015,0.003592529334127903,0.009580078534781933,
1.843,-0.002993774600327015,0.003592529334127903,0.009580078534781933,
1.847,-0.002993774600327015,0.003592529334127903,0.009580078534781933,
1.852,-0.002993774600327015,0.003592529334127903,0.009580078534781933,
1.857,-0.002993774600327015,0.003592529334127903,0.009580078534781933,
1.861,-0.002993774600327015,0.003592529334127903,0.009580078534781933,
1.866,-0.002993774600327015,0.003592529334127903,0.009580078534781933,
1.871,-0.002993774600327015,0.003592529334127903,0.009580078534781933,
1.875,-0.007783813867717981,0.002395019633695483,0.010777588002383709,
1.879,-0.007783813867717981,0.002395019633695483,0.010777588002383709,
1.884,-0.007783813867717981,0.002395019633695483,0.010777588002383709,
1.889,-0.007783813867717981,0.002395019633695483,0.010777588002383709,
1.893,-0.007783813867717981,0.002395019633695483,0.010777588002383709,
1.898,-0.007783813867717981,0.002395019633695483,0.010777588002383709,
1.902,-0.007783813867717981,0.002395019633695483,0.010777588002383709,
1.906,-0.007783813867717981,0.002395019633695483,0.010777588002383709,
1.911,-0.007783813867717981,0.002395019633695483,0.010777588002383709,
1.916,-0.007783813867717981,0.002395019633695483,0.010777588002383709,
1.921,-0.007783813867717981,0.002395019633695483,0.010777588002383709,
1.925,-0.016166383400559425,-0.02634521573781967,0.013172607868909836,
1.929,-0.016166383400559425,-0.02634521573781967,0.013172607868909836,
1.934,-0.016166383400559425,-0.02634521573781967,0.013172607868909836,
1.938,-0.016166383400559425,-0.02634521573781967,0.013172607868909836,
1.943,-0.016166383400559425,-0.02634521573781967,0.013172607868909836,
1.948,-0.016166383400559425,-0.02634521573781967,0.013172607868909836,
1.952,-0.016166383400559425,-0.02634521573781967,0.013172607868909836,
1.958,-0.016166383400559425,-0.02634521573781967,0.013172607868909836,
1.962,-0.016166383400559425,-0.02634521573781967,0.013172607868909836,
1.967,-0.016166383400559425,-0.02634521573781967,0.013172607868909836,
1.971,-0.016166383400559425,-0.02634521573781967,0.013172607868909836,
1.975,-0.022153930738568306,0.016765138134360313,-0.00598754920065403,
1.979,-0.022153930738568306,0.016765138134360313,-0.00598754920065403,
1.984,-0.022153930738568306,0.016765138134360313,-0.00598754920065403,
1.988,-0.022153930738568306,0.016765138134360313,-0.00598754920065403,
1.993,-0.022153930738568306,0.016765138134360313,-0.00598754920065403,
1.998,-0.022153930738568306,0.016765138134360313,-0.00598754920065403,
2.003,-0.022153930738568306,0.016765138134360313,-0.00598754920065403,
2.007,-0.022153930738568306,0.016765138134360313,-0.00598754920065403,
2.011,-0.022153930738568306,0.016765138134360313,-0.00598754920065403,
2.016,-0.022153930738568306,0.016765138134360313,-0.00598754920065403,
2.021,-0.022153930738568306,0.016765138134360313,-0.00598754920065403,
2.025,-0.019758911803364754,-0.021555176004767418,0.002395019633695483,
2.03,-0.019758911803364754,-0.021555176004767418,0.002395019633695483,
2.035,-0.019758911803364754,-0.021555176004767418,0.002395019633695483,
2.04,-0.019758911803364754,-0.021555176004767418,0.002395019633695483,
2.044,-0.019758911803364754,-0.021555176004767418,0.002395019633695483,
2.05,-0.019758911803364754,-0.021555176004767418,0.002395019633695483,
2.055,-0.019758911803364754,-0.021555176004767418,0.002395019633695483,
2.06,-0.019758911803364754,-0.021555176004767418,0.002395019633695483,
2.064,-0.019758911803364754,-0.021555176004767418,0.002395019633695483,
2.069,-0.019758911803364754,-0.021555176004767418,0.002395019633695483,
2.075,-0.007783813867717981,-0.009580078534781933,0.009580078534781933,
2.079,-0.007783813867717981,-0.009580078534781933,0.009580078534781933,
2.083,-0.007783813867717981,-0.009580078534781933,0.009580078534781933,
2.088,-0.007783813867717981,-0.009580078534781933,0.009580078534781933,
2.092,-0.007783813867717981,-0.009580078534781933,0.009580078534781933,
2.097,-0.007783813867717981,-0.009580078534781933,0.009580078534781933,
2.101,-0.007783813867717981,-0.009580078534781933,0.009580078534781933,
2.107,-0.007783813867717981,-0.009580078534781933,0.009580078534781933,
2.112,-0.007783813867717981,-0.009580078534781933,0.009580078534781933,
2.116,-0.007783813867717981,-0.009580078534781933,0.009580078534781933,
2.121,-0.010178833268582821,-0.0011975098168477416,-0.003592529334127903,
2.126,-0.010178833268582821,-0.0011975098168477416,-0.003592529334127903,
2.13,-0.010178833268582821,-0.0011975098168477416,-0.003592529334127903,
2.135,-0.010178833268582821,-0.0011975098168477416,-0.003592529334127903,
2.141,-0.010178833268582821,-0.0011975098168477416,-0.003592529334127903,
2.145,-0.010178833268582821,-0.0011975098168477416,-0.003592529334127903,
2.15,-0.010178833268582821,-0.0011975098168477416,-0.003592529334127903,
2.156,-0.010178833268582821,-0.0011975098168477416,-0.003592529334127903,
2.16,-0.010178833268582821,-0.0011975098168477416,-0.003592529334127903,
2.165,-0.010178833268582821,-0.0011975098168477416,-0.003592529334127903,
2.169,-0.010178833268582821,-0.0011975098168477416,-0.003592529334127903,
2.175,-0.043709106743335724,0,0.015567627735435963,
2.179,-0.043709106743335724,0,0.015567627735435963,
2.183,-0.043709106743335724,0,0.015567627735435963,
2.188,-0.043709106743335724,0,0.015567627735435963,
2.192,-0.043709106743335724,0,0.015567627735435963,
2.197,-0.043709106743335724,0,0.015567627735435963,
2.201,-0.043709106743335724,0,0.015567627735435963,
2.207,-0.043709106743335724,0,0.015567627735435963,
2.211,-0.043709106743335724,0,0.015567627735435963,
2.215,-0.043709106743335724,0,0.015567627735435963,
2.22,-0.043709106743335724,0,0.015567627735435963,
2.224,-0.028141479939222336,0.01197509840130806,-0.02395019680261612,
2.228,-0.028141479939222336,0.01197509840130806,-0.02395019680261612,
2.232,-0.028141479939222336,0.01197509840130806,-0.02395019680261612,
2.237,-0.028141479939222336,0.01197509840130806,-0.02395019680261612,
2.241,-0.028141479939222336,0.01197509840130806,-0.02395019680261612,
2.245,-0.028141479939222336,0.01197509840130806,-0.02395019680261612,
2.25,-0.028141479939222336,0.01197509840130806,-0.02395019680261612,
2.254,-0.028141479939222336,0.01197509840130806,-0.02395019680261612,
2.259,-0.028141479939222336,0.01197509840130806,-0.02395019680261612,
2.264,-0.028141479939222336,0.01197509840130806,-0.02395019680261612,
2.269,-0.028141479939222336,0.01197509840130806,-0.02395019680261612,
2.274,-0.024548951536417007,-0.02634521573781967,0.00598754920065403,
2.278,-0.024548951536417007,-0.02634521573781967,0.00598754920065403,
2.282,-0.024548951536417007,-0.02634521573781967,0.00598754920065403,
2.287,-0.024548951536417007,-0.02634521573781967,0.00598754920065403,
2.293,-0.024548951536417007,-0.02634521573781967,0.00598754920065403,
2.297,-0.024548951536417007,-0.02634521573781967,0.00598754920065403,
2.303,-0.024548951536417007,-0.02634521573781967,0.00598754920065403,
2.309,-0.024548951536417007,-0.02634521573781967,0.00598754920065403,
2.313,-0.024548951536417007,-0.02634521573781967,0.00598754920065403,
2.318,-0.024548951536417007,-0.02634521573781967,0.00598754920065403,
2.322,-0.0053887940011918545,-0.010777588002383709,-0.01796264760196209,
2.327,-0.0053887940011918545,-0.010777588002383709,-0.01796264760196209,
2.331,-0.0053887940011918545,-0.010777588002383709,-0.01796264760196209,
2.336,-0.0053887940011918545,-0.010777588002383709,-0.01796264760196209,
2.342,-0.0053887940011918545,-0.010777588002383709,-0.01796264760196209,
2.347,-0.0053887940011918545,-0.010777588002383709,-0.01796264760196209,
2.351,-0.0053887940011918545,-0.010777588002383709,-0.01796264760196209,
2.356,-0.0053887940011918545,-0.010777588002383709,-0.01796264760196209,
2.36,-0.0053887940011918545,-0.010777588002383709,-0.01796264760196209,
2.364,-0.0053887940011918545,-0.010777588002383709,-0.01796264760196209,
2.369,-0.008981323800981045,-0.003592529334127903,-0.022752687335014343,
2.373,-0.008981323800981045,-0.003592529334127903,-0.022752687335014343,
2.377,-0.008981323800981045,-0.003592529334127903,-0.022752687335014343,
2.382,-0.008981323800981045,-0.003592529334127903,-0.022752687335014343,
2.386,-0.008981323800981045,-0.003592529334127903,-0.022752687335014343,
2.391,-0.008981323800981045,-0.003592529334127903,-0.022752687335014343,
2.395,-0.008981323800981045,-0.003592529334127903,-0.022752687335014343,
2.399,-0.008981323800981045,-0.003592529334127903,-0.022752687335014343,
2.404,-0.008981323800981045,-0.003592529334127903,-0.022752687335014343,
2.409,-0.008981323800981045,-0.003592529334127903,-0.022752687335014343,
2.414,-0.008981323800981045,-0.003592529334127903,-0.022752687335014343,
2.418,-0.008981323800981045,-0.003592529334127903,-0.022752687335014343,
2.422,-0.016166383400559425,0.004790039267390966,-0.003592529334127903,
2.427,-0.016166383400559425,0.004790039267390966,-0.003592529334127903,
2.433,-0.016166383400559425,0.004790039267390966,-0.003592529334127903,
2.439,-0.016166383400559425,0.004790039267390966,-0.003592529334127903,
2.443,-0.016166383400559425,0.004790039267390966,-0.003592529334127903,
2.448,-0.016166383400559425,0.004790039267390966,-0.003592529334127903,
2.453,-0.016166383400559425,0.004790039267390966,-0.003592529334127903,
2.458,-0.016166383400559425,0.004790039267390966,-0.003592529334127903,
2.462,-0.016166383400559425,0.004790039267390966,-0.003592529334127903,
2.466,-0.016166383400559425,0.004790039267390966,-0.003592529334127903,
2.471,-0.012573853135108948,-0.016765138134360313,-0.004790039267390966,
2.476,-0.012573853135108948,-0.016765138134360313,-0.004790039267390966,
2.48,-0.012573853135108948,-0.016765138134360313,-0.004790039267390966,
2.485,-0.012573853135108948,-0.016765138134360313,-0.004790039267390966,
2.49,-0.012573853135108948,-0.016765138134360313,-0.004790039267390966,
2.494,-0.012573853135108948,-0.016765138134360313,-0.004790039267390966,
2.499,-0.012573853135108948,-0.016765138134360313,-0.004790039267390966,
2.503,-0.012573853135108948,-0.016765138134360313,-0.004790039267390966,
2.507,-0.012573853135108948,-0.016765138134360313,-0.004790039267390966,
2.512,-0.012573853135108948,-0.016765138134360313,-0.004790039267390966,
2.516,-0.012573853135108948,-0.016765138134360313,-0.004790039267390966,
2.522,-0.03652404993772507,-0.010777588002383709,0.01796264760196209,
2.527,-0.03652404993772507,-0.010777588002383709,0.01796264760196209,
2.531,-0.03652404993772507,-0.010777588002383709,0.01796264760196209,
2.536,-0.03652404993772507,-0.010777588002383709,0.01796264760196209,
2.541,-0.03652404993772507,-0.010777588002383709,0.01796264760196209,
2.548,-0.03652404993772507,-0.010777588002383709,0.01796264760196209,
2.554,-0.03652404993772507,-0.010777588002383709,0.01796264760196209,
2.56,-0.03652404993772507,-0.010777588002383709,0.01796264760196209,
2.564,-0.03652404993772507,-0.010777588002383709,0.01796264760196209,
2.569,-0.0053887940011918545,0.009580078534781933,0.021555176004767418,
2.575,-0.0053887940011918545,0.009580078534781933,0.021555176004767418,
2.579,-0.0053887940011918545,0.009580078534781933,0.021555176004767418,
2.583,-0.0053887940011918545,0.009580078534781933,0.021555176004767418,
2.589,-0.0053887940011918545,0.009580078534781933,0.021555176004767418,
2.593,-0.0053887940011918545,0.009580078534781933,0.021555176004767418,
2.598,-0.0053887940011918545,0.009580078534781933,0.021555176004767418,
2.602,-0.0053887940011918545,0.009580078534781933,0.021555176004767418,
2.607,-0.0053887940011918545,0.009580078534781933,0.021555176004767418,
2.612,-0.0053887940011918545,0.009580078534781933,0.021555176004767418,
2.616,-0.0053887940011918545,0.009580078534781933,0.021555176004767418,
2.622,-0.0173638928681612,-0.007185058668255806,0.025147706270217896,
2.626,-0.0173638928681612,-0.007185058668255806,0.025147706270217896,
2.631,-0.0173638928681612,-0.007185058668255806,0.025147706270217896,
2.636,-0.0173638928681612,-0.007185058668255806,0.025147706270217896,
2.64,-0.0173638928681612,-0.007185058668255806,0.025147706270217896,
2.645,-0.0173638928681612,-0.007185058668255806,0.025147706270217896,
2.649,-0.0173638928681612,-0.007185058668255806,0.025147706270217896,
2.654,-0.0173638928681612,-0.007185058668255806,0.025147706270217896,
2.659,-0.0173638928681612,-0.007185058668255806,0.025147706270217896,
2.664,-0.0173638928681612,-0.007185058668255806,0.025147706270217896,
2.668,-0.031734008342027664,-0.013172607868909836,0.01197509840130806,
2.674,-0.031734008342027664,-0.013172607868909836,0.01197509840130806,
2.678,-0.031734008342027664,-0.013172607868909836,0.01197509840130806,
2.682,-0.031734008342027664,-0.013172607868909836,0.01197509840130806,
2.687,-0.031734008342027664,-0.013172607868909836,0.01197509840130806,
2.692,-0.031734008342027664,-0.013172607868909836,0.01197509840130806,
2.696,-0.031734008342027664,-0.013172607868909836,0.01197509840130806,
2.702,-0.031734008342027664,-0.013172607868909836,0.01197509840130806,
2.707,-0.031734008342027664,-0.013172607868909836,0.01197509840130806,
2.711,-0.031734008342027664,-0.013172607868909836,0.01197509840130806,
2.716,-0.019758911803364754,-0.013172607868909836,0.004790039267390966,
2.722,-0.019758911803364754,-0.013172607868909836,0.004790039267390966,
2.729,-0.019758911803364754,-0.013172607868909836,0.004790039267390966,
2.734,-0.019758911803364754,-0.013172607868909836,0.004790039267390966,
2.739,-0.019758911803364754,-0.013172607868909836,0.004790039267390966,
2.743,-0.019758911803364754,-0.013172607868909836,0.004790039267390966,
2.748,-0.019758911803364754,-0.013172607868909836,0.004790039267390966,
2.753,-0.019758911803364754,-0.013172607868909836,0.004790039267390966,
2.758,-0.019758911803364754,-0.013172607868909836,0.004790039267390966,
2.762,-0.019758911803364754,-0.013172607868909836,0.004790039267390966,
2.767,-0.04131408780813217,-0.01197509840130806,0.008382569067180157,
2.772,-0.04131408780813217,-0.01197509840130806,0.008382569067180157,
2.776,-0.04131408780813217,-0.01197509840130806,0.008382569067180157,
2.78,-0.04131408780813217,-0.01197509840130806,0.008382569067180157,
2.785,-0.04131408780813217,-0.01197509840130806,0.008382569067180157,
2.79,-0.04131408780813217,-0.01197509840130806,0.008382569067180157,
2.794,-0.04131408780813217,-0.01197509840130806,0.008382569067180157,
2.798,-0.04131408780813217,-0.01197509840130806,0.008382569067180157,
2.804,-0.04131408780813217,-0.01197509840130806,0.008382569067180157,
2.808,-0.04131408780813217,-0.01197509840130806,0.008382569067180157,
2.813,-0.04131408780813217,-0.01197509840130806,0.008382569067180157,
2.817,-0.013771362602710724,-0.0011975098168477416,0.020357666537165642,
2.822,-0.013771362602710724,-0.0011975098168477416,0.020357666537165642,
2.828,-0.013771362602710724,-0.0011975098168477416,0.020357666537165642,
2.833,-0.013771362602710724,-0.0011975098168477416,0.020357666537165642,
2.837,-0.013771362602710724,-0.0011975098168477416,0.020357666537165642,
2.841,-0.013771362602710724,-0.0011975098168477416,0.020357666537165642,
2.846,-0.013771362602710724,-0.0011975098168477416,0.020357666537165642,
2.85,-0.013771362602710724,-0.0011975098168477416,0.020357666537165642,
2.855,-0.013771362602710724,-0.0011975098168477416,0.020357666537165642,
2.859,-0.013771362602710724,-0.0011975098168477416,0.020357666537165642,
2.863,-0.013771362602710724,-0.0011975098168477416,0.020357666537165642,
2.868,-0.007783813867717981,-0.00598754920065403,-0.020357666537165642,
2.872,-0.007783813867717981,-0.00598754920065403,-0.020357666537165642,
2.877,-0.007783813867717981,-0.00598754920065403,-0.020357666537165642,
2.882,-0.007783813867717981,-0.00598754920065403,-0.020357666537165642,
2.887,-0.007783813867717981,-0.00598754920065403,-0.020357666537165642,
2.891,-0.007783813867717981,-0.00598754920065403,-0.020357666537165642,
2.896,-0.007783813867717981,-0.00598754920065403,-0.020357666537165642,
2.9,-0.007783813867717981,-0.00598754920065403,-0.020357666537165642,
2.905,-0.007783813867717981,-0.00598754920065403,-0.020357666537165642,
2.908,-0.007783813867717981,-0.00598754920065403,-0.020357666537165642,
2.911,-0.007783813867717981,-0.00598754920065403,-0.020357666537165642,
2.916,-0.016166383400559425,-0.013172607868909836,-0.020357666537165642,
2.919,-0.016166383400559425,-0.013172607868909836,-0.020357666537165642,
2.923,-0.016166383400559425,-0.013172607868909836,-0.020357666537165642,
2.926,-0.016166383400559425,-0.013172607868909836,-0.020357666537165642,
2.93,-0.016166383400559425,-0.013172607868909836,-0.020357666537165642,
2.933,-0.016166383400559425,-0.013172607868909836,-0.020357666537165642,
2.938,-0.016166383400559425,-0.013172607868909836,-0.020357666537165642,
2.941,-0.016166383400559425,-0.013172607868909836,-0.020357666537165642,
2.944,-0.016166383400559425,-0.013172607868909836,-0.020357666537165642,
2.948,-0.016166383400559425,-0.013172607868909836,-0.020357666537165642,
2.952,-0.016166383400559425,-0.013172607868909836,-0.020357666537165642,
2.956,-0.016166383400559425,-0.013172607868909836,-0.020357666537165642,
2.96,-0.016166383400559425,-0.013172607868909836,-0.020357666537165642,
2.965,-0.04251159727573395,-0.019160157069563866,0.014370117336511612,
2.969,-0.04251159727573395,-0.019160157069563866,0.014370117336511612,
2.974,-0.04251159727573395,-0.019160157069563866,0.014370117336511612,
2.98,-0.04251159727573395,-0.019160157069563866,0.014370117336511612,
2.984,-0.04251159727573395,-0.019160157069563866,0.014370117336511612,
2.988,-0.04251159727573395,-0.019160157069563866,0.014370117336511612,
2.993,-0.04251159727573395,-0.019160157069563866,0.014370117336511612,
2.998,-0.04251159727573395,-0.019160157069563866,0.014370117336511612,
3.002,-0.04251159727573395,-0.019160157069563866,0.014370117336511612,
3.007,-0.04251159727573395,-0.019160157069563866,0.014370117336511612,
3.011,-0.04251159727573395,-0.019160157069563866,0.014370117336511612,
3.017,-0.018561402335762978,-0.0011975098168477416,0.015567627735435963,
3.021,-0.018561402335762978,-0.0011975098168477416,0.015567627735435963,
3.026,-0.018561402335762978,-0.0011975098168477416,0.015567627735435963,
3.031,-0.018561402335762978,-0.0011975098168477416,0.015567627735435963,
3.036,-0.018561402335762978,-0.0011975098168477416,0.015567627735435963,
3.041,-0.018561402335762978,-0.0011975098168477416,0.015567627735435963,
3.046,-0.018561402335762978,-0.0011975098168477416,0.015567627735435963,
3.051,-0.018561402335762978,-0.0011975098168477416,0.015567627735435963,
3.057,-0.018561402335762978,-0.0011975098168477416,0.015567627735435963,
3.061,-0.018561402335762978,-0.0011975098168477416,0.015567627735435963,
3.066,0.0005987549084238708,0.014370117336511612,0.013172607868909836,
3.072,0.0005987549084238708,0.014370117336511612,0.013172607868909836,
3.077,0.0005987549084238708,0.014370117336511612,0.013172607868909836,
3.081,0.0005987549084238708,0.014370117336511612,0.013172607868909836,
3.086,0.0005987549084238708,0.014370117336511612,0.013172607868909836,
3.091,0.0005987549084238708,0.014370117336511612,0.013172607868909836,
3.096,0.0005987549084238708,0.014370117336511612,0.013172607868909836,
3.1,0.0005987549084238708,0.014370117336511612,0.013172607868909836,
3.106,0.0005987549084238708,0.014370117336511612,0.013172607868909836,
3.111,0.0005987549084238708,0.014370117336511612,0.013172607868909836,
3.115,-0.002993774600327015,-0.02395019680261612,-0.002395019633695483,
3.121,-0.002993774600327015,-0.02395019680261612,-0.002395019633695483,
3.126,-0.002993774600327015,-0.02395019680261612,-0.002395019633695483,
3.13,-0.002993774600327015,-0.02395019680261612,-0.002395019633695483,
3.135,-0.002993774600327015,-0.02395019680261612,-0.002395019633695483,
3.139,-0.002993774600327015,-0.02395019680261612,-0.002395019633695483,
3.143,-0.002993774600327015,-0.02395019680261612,-0.002395019633695483,
3.148,-0.002993774600327015,-0.02395019680261612,-0.002395019633695483,
3.153,-0.002993774600327015,-0.02395019680261612,-0.002395019633695483,
3.157,-0.002993774600327015,-0.02395019680261612,-0.002395019633695483,
3.161,-0.002993774600327015,-0.02395019680261612,-0.002395019633695483,
3.165,-0.0017962646670639515,-0.009580078534781933,0.027542725205421448,
3.17,-0.0017962646670639515,-0.009580078534781933,0.027542725205421448,
3.175,-0.0017962646670639515,-0.009580078534781933,0.027542725205421448,
3.179,-0.0017962646670639515,-0.009580078534781933,0.027542725205421448,
3.183,-0.0017962646670639515,-0.009580078534781933,0.027542725205421448,
3.188,-0.0017962646670639515,-0.009580078534781933,0.027542725205421448,
3.193,-0.0017962646670639515,-0.009580078534781933,0.027542725205421448,
3.198,-0.0017962646670639515,-0.009580078534781933,0.027542725205421448,
3.202,-0.0017962646670639515,-0.009580078534781933,0.027542725205421448,
3.208,-0.0017962646670639515,-0.009580078534781933,0.027542725205421448,
3.212,-0.0017962646670639515,-0.009580078534781933,0.027542725205421448,
3.216,-0.004191284533590078,0.007185058668255806,0.01796264760196209,
3.221,-0.004191284533590078,0.007185058668255806,0.01796264760196209,
3.225,-0.004191284533590078,0.007185058668255806,0.01796264760196209,
3.229,-0.004191284533590078,0.007185058668255806,0.01796264760196209,
3.234,-0.004191284533590078,0.007185058668255806,0.01796264760196209,
3.239,-0.004191284533590078,0.007185058668255806,0.01796264760196209,
3.243,-0.004191284533590078,0.007185058668255806,0.01796264760196209,
3.248,-0.004191284533590078,0.007185058668255806,0.01796264760196209,
3.253,-0.004191284533590078,0.007185058668255806,0.01796264760196209,
3.257,-0.004191284533590078,0.007185058668255806,0.01796264760196209,
3.261,-0.016166383400559425,-0.007185058668255806,-0.015567627735435963,
3.267,-0.016166383400559425,-0.007185058668255806,-0.015567627735435963,
3.272,-0.016166383400559425,-0.007185058668255806,-0.015567627735435963,
3.278,-0.016166383400559425,-0.007185058668255806,-0.015567627735435963,
3.282,-0.016166383400559425,-0.007185058668255806,-0.015567627735435963,
3.288,-0.016166383400559425,-0.007185058668255806,-0.015567627735435963,
3.293,-0.016166383400559425,-0.007185058668255806,-0.015567627735435963,
3.297,-0.016166383400559425,-0.007185058668255806,-0.015567627735435963,
3.303,-0.016166383400559425,-0.007185058668255806,-0.015567627735435963,
3.308,-0.016166383400559425,-0.007185058668255806,-0.015567627735435963,
3.313,-0.019758911803364754,-0.002395019633695483,-0.008382569067180157,
3.317,-0.019758911803364754,-0.002395019633695483,-0.008382569067180157,
3.323,-0.019758911803364754,-0.002395019633695483,-0.008382569067180157,
3.328,-0.019758911803364754,-0.002395019633695483,-0.008382569067180157,
3.332,-0.019758911803364754,-0.002395019633695483,-0.008382569067180157,
3.337,-0.019758911803364754,-0.002395019633695483,-0.008382569067180157,
3.34,-0.019758911803364754,-0.002395019633695483,-0.008382569067180157,
3.344,-0.019758911803364754,-0.002395019633695483,-0.008382569067180157,
3.347,-0.019758911803364754,-0.002395019633695483,-0.008382569067180157,
3.351,-0.019758911803364754,-0.002395019633695483,-0.008382569067180157,
3.354,-0.019758911803364754,-0.002395019633695483,-0.008382569067180157,
3.358,-0.019758911803364754,-0.002395019633695483,-0.008382569067180157,
3.361,-0.03532654047012329,-0.01197509840130806,0.02634521573781967,
3.365,-0.03532654047012329,-0.01197509840130806,0.02634521573781967,
3.368,-0.03532654047012329,-0.01197509840130806,0.02634521573781967,
3.372,-0.03532654047012329,-0.01197509840130806,0.02634521573781967,
3.375,-0.03532654047012329,-0.01197509840130806,0.02634521573781967,
3.38,-0.03532654047012329,-0.01197509840130806,0.02634521573781967,
3.384,-0.03532654047012329,-0.01197509840130806,0.02634521573781967,
3.389,-0.03532654047012329,-0.01197509840130806,0.02634521573781967,
3.393,-0.03532654047012329,-0.01197509840130806,0.02634521573781967,
3.398,-0.03532654047012329,-0.01197509840130806,0.02634521573781967,
3.403,-0.03532654047012329,-0.01197509840130806,0.02634521573781967,
3.408,-0.03532654047012329,-0.01197509840130806,0.02634521573781967,
3.413,0.007783813867717981,-0.014370117336511612,0.013172607868909836,
3.418,0.007783813867717981,-0.014370117336511612,0.013172607868909836,
3.424,0.007783813867717981,-0.014370117336511612,0.013172607868909836,
3.429,0.007783813867717981,-0.014370117336511612,0.013172607868909836,
3.434,0.007783813867717981,-0.014370117336511612,0.013172607868909836,
3.439,0.007783813867717981,-0.014370117336511612,0.013172607868909836,
3.444,0.007783813867717981,-0.014370117336511612,0.013172607868909836,
3.448,0.007783813867717981,-0.014370117336511612,0.013172607868909836,
3.454,0.007783813867717981,-0.014370117336511612,0.013172607868909836,
3.459,0.007783813867717981,-0.014370117336511612,0.013172607868909836,
3.464,-0.024548951536417007,-0.019160157069563866,0.019160157069563866,
3.469,-0.024548951536417007,-0.019160157069563866,0.019160157069563866,
3.474,-0.024548951536417007,-0.019160157069563866,0.019160157069563866,
3.479,-0.024548951536417007,-0.019160157069563866,0.019160157069563866,
3.483,-0.024548951536417007,-0.019160157069563866,0.019160157069563866,
3.488,-0.024548951536417007,-0.019160157069563866,0.019160157069563866,
3.493,-0.024548951536417007,-0.019160157069563866,0.019160157069563866,
3.497,-0.024548951536417007,-0.019160157069563866,0.019160157069563866,
3.503,-0.024548951536417007,-0.019160157069563866,0.019160157069563866,
3.508,-0.024548951536417007,-0.019160157069563866,0.019160157069563866,
3.512,-0.024548951536417007,-0.03592529520392418,0.007185058668255806,
3.517,-0.024548951536417007,-0.03592529520392418,0.007185058668255806,
3.522,-0.024548951536417007,-0.03592529520392418,0.007185058668255806,
3.526,-0.024548951536417007,-0.03592529520392418,0.007185058668255806,
3.53,-0.024548951536417007,-0.03592529520392418,0.007185058668255806,
3.535,-0.024548951536417007,-0.03592529520392418,0.007185058668255806,
3.539,-0.024548951536417007,-0.03592529520392418,0.007185058668255806,
3.543,-0.024548951536417007,-0.03592529520392418,0.007185058668255806,
3.547,-0.024548951536417007,-0.03592529520392418,0.007185058668255806,
3.552,-0.024548951536417007,-0.03592529520392418,0.007185058668255806,
3.558,-0.024548951536417007,-0.03592529520392418,0.007185058668255806,
3.562,-0.03293152153491974,-0.008382569067180157,0.002395019633695483,
3.567,-0.03293152153491974,-0.008382569067180157,0.002395019633695483,
3.572,-0.03293152153491974,-0.008382569067180157,0.002395019633695483,
3.577,-0.03293152153491974,-0.008382569067180157,0.002395019633695483,
3.581,-0.03293152153491974,-0.008382569067180157,0.002395019633695483,
3.585,-0.03293152153491974,-0.008382569067180157,0.002395019633695483,
3.591,-0.03293152153491974,-0.008382569067180157,0.002395019633695483,
3.596,-0.03293152153491974,-0.008382569067180157,0.002395019633695483,
3.6,-0.03293152153491974,-0.008382569067180157,0.002395019633695483,
3.605,-0.03293152153491974,-0.008382569067180157,0.002395019633695483,
3.609,-0.03652404993772507,0.007185058668255806,0.022752687335014343,
3.613,-0.03652404993772507,0.007185058668255806,0.022752687335014343,
3.618,-0.03652404993772507,0.007185058668255806,0.022752687335014343,
3.623,-0.03652404993772507,0.007185058668255806,0.022752687335014343,
3.627,-0.03652404993772507,0.007185058668255806,0.022752687335014343,
3.631,-0.03652404993772507,0.007185058668255806,0.022752687335014343,
3.636,-0.03652404993772507,0.007185058668255806,0.022752687335014343,
3.641,-0.03652404993772507,0.007185058668255806,0.022752687335014343,
3.646,-0.03652404993772507,0.007185058668255806,0.022752687335014343,
3.65,-0.03652404993772507,0.007185058668255806,0.022752687335014343,
3.655,-0.03652404993772507,0.007185058668255806,0.022752687335014343,
3.659,-0.03293152153491974,-0.01197509840130806,0.028740234673023224,
3.663,-0.03293152153491974,-0.01197509840130806,0.028740234673023224,
3.667,-0.03293152153491974,-0.01197509840130806,0.028740234673023224,
3.672,-0.03293152153491974,-0.01197509840130806,0.028740234673023224,
3.677,-0.03293152153491974,-0.01197509840130806,0.028740234673023224,
3.681,-0.03293152153491974,-0.01197509840130806,0.028740234673023224,
3.685,-0.03293152153491974,-0.01197509840130806,0.028740234673023224,
3.69,-0.03293152153491974,-0.01197509840130806,0.028740234673023224,
3.694,-0.03293152153491974,-0.01197509840130806,0.028740234673023224,
3.699,-0.03293152153491974,-0.01197509840130806,0.028740234673023224,
3.704,-0.03293152153491974,-0.01197509840130806,0.028740234673023224,
3.709,0.0017962646670639515,0.003592529334127903,0.009580078534781933,
3.714,0.0017962646670639515,0.003592529334127903,0.009580078534781933,
3.719,0.0017962646670639515,0.003592529334127903,0.009580078534781933,
3.723,0.0017962646670639515,0.003592529334127903,0.009580078534781933,
3.728,0.0017962646670639515,0.003592529334127903,0.009580078534781933,
3.732,0.0017962646670639515,0.003592529334127903,0.009580078534781933,
3.737,0.0017962646670639515,0.003592529334127903,0.009580078534781933,
3.742,0.0017962646670639515,0.003592529334127903,0.009580078534781933,
3.747,0.0017962646670639515,0.003592529334127903,0.009580078534781933,
3.751,0.0017962646670639515,0.003592529334127903,0.009580078534781933,
3.756,0.0017962646670639515,0.003592529334127903,0.009580078534781933,
3.761,-0.011376343667507172,0,-0.0011975098168477416,
3.766,-0.011376343667507172,0,-0.0011975098168477416,
3.771,-0.011376343667507172,0,-0.0011975098168477416,
3.775,-0.011376343667507172,0,-0.0011975098168477416,
3.779,-0.011376343667507172,0,-0.0011975098168477416,
3.784,-0.011376343667507172,0,-0.0011975098168477416,
3.788,-0.011376343667507172,0,-0.0011975098168477416,
3.793,-0.011376343667507172,0,-0.0011975098168477416,
3.797,-0.011376343667507172,0,-0.0011975098168477416,
3.802,-0.011376343667507172,0,-0.0011975098168477416,
3.806,-0.011376343667507172,0,-0.0011975098168477416,
3.81,-0.0053887940011918545,-0.020357666537165642,0.015567627735435963,
3.816,-0.0053887940011918545,-0.020357666537165642,0.015567627735435963,
3.82,-0.0053887940011918545,-0.020357666537165642,0.015567627735435963,
3.825,-0.0053887940011918545,-0.020357666537165642,0.015567627735435963,
3.829,-0.0053887940011918545,-0.020357666537165642,0.015567627735435963,
3.834,-0.0053887940011918545,-0.020357666537165642,0.015567627735435963,
3.839,-0.0053887940011918545,-0.020357666537165642,0.015567627735435963,
3.843,-0.0053887940011918545,-0.020357666537165642,0.015567627735435963,
3.847,-0.0053887940011918545,-0.020357666537165642,0.015567627735435963,
3.852,-0.0053887940011918545,-0.020357666537165642,0.015567627735435963,
3.857,-0.016166383400559425,0.003592529334127903,-0.04790039360523224,
3.862,-0.016166383400559425,0.003592529334127903,-0.04790039360523224,
3.866,-0.016166383400559425,0.003592529334127903,-0.04790039360523224,
3.872,-0.016166383400559425,0.003592529334127903,-0.04790039360523224,
3.876,-0.016166383400559425,0.003592529334127903,-0.04790039360523224,
3.88,-0.016166383400559425,0.003592529334127903,-0.04790039360523224,
3.885,-0.016166383400559425,0.003592529334127903,-0.04790039360523224,
3.891,-0.016166383400559425,0.003592529334127903,-0.04790039360523224,
3.896,-0.016166383400559425,0.003592529334127903,-0.04790039360523224,
3.901,-0.016166383400559425,0.003592529334127903,-0.04790039360523224,
3.906,-0.016166383400559425,0.003592529334127903,-0.04790039360523224,
3.91,-0.004191284533590078,0,0.00598754920065403,
3.915,-0.004191284533590078,0,0.00598754920065403,
3.92,-0.004191284533590078,0,0.00598754920065403,
3.925,-0.004191284533590078,0,0.00598754920065403,
3.93,-0.004191284533590078,0,0.00598754920065403,
3.934,-0.004191284533590078,0,0.00598754920065403,
3.939,-0.004191284533590078,0,0.00598754920065403,
3.944,-0.004191284533590078,0,0.00598754920065403,
3.949,-0.004191284533590078,0,0.00598754920065403,
3.953,-0.004191284533590078,0,0.00598754920065403,
3.959,-0.02095642127096653,0,-0.004790039267390966,
3.963,-0.02095642127096653,0,-0.004790039267390966,
3.968,-0.02095642127096653,0,-0.004790039267390966,
3.974,-0.02095642127096653,0,-0.004790039267390966,
3.979,-0.02095642127096653,0,-0.004790039267390966,
3.983,-0.02095642127096653,0,-0.004790039267390966,
3.989,-0.02095642127096653,0,-0.004790039267390966,
3.993,-0.02095642127096653,0,-0.004790039267390966,
3.997,-0.02095642127096653,0,-0.004790039267390966,
4.002,-0.02095642127096653,0,-0.004790039267390966,
4.008,-0.0053887940011918545,-0.008382569067180157,-0.00598754920065403,
4.012,-0.0053887940011918545,-0.008382569067180157,-0.00598754920065403,
4.017,-0.0053887940011918545,-0.008382569067180157,-0.00598754920065403,
4.022,-0.0053887940011918545,-0.008382569067180157,-0.00598754920065403,
4.027,-0.0053887940011918545,-0.008382569067180157,-0.00598754920065403,
4.031,-0.0053887940011918545,-0.008382569067180157,-0.00598754920065403,
4.037,-0.0053887940011918545,-0.008382569067180157,-0.00598754920065403,
4.042,-0.0053887940011918545,-0.008382569067180157,-0.00598754920065403,
4.046,-0.0053887940011918545,-0.008382569067180157,-0.00598754920065403,
4.051,-0.0053887940011918545,-0.008382569067180157,-0.00598754920065403,
4.055,-0.034129031002521515,0.0011975098168477416,0.013172607868909836,
4.06,-0.034129031002521515,0.0011975098168477416,0.013172607868909836,
4.064,-0.034129031002521515,0.0011975098168477416,0.013172607868909836,
4.071,-0.034129031002521515,0.0011975098168477416,0.013172607868909836,
4.075,-0.034129031002521515,0.0011975098168477416,0.013172607868909836,
4.08,-0.034129031002521515,0.0011975098168477416,0.013172607868909836,
4.085,-0.034129031002521515,0.0011975098168477416,0.013172607868909836,
4.09,-0.034129031002521515,0.0011975098168477416,0.013172607868909836,
4.094,-0.034129031002521515,0.0011975098168477416,0.013172607868909836,
4.099,-0.034129031002521515,0.0011975098168477416,0.013172607868909836,
4.105,-0.013771362602710724,-0.009580078534781933,0.019160157069563866,
4.11,-0.013771362602710724,-0.009580078534781933,0.019160157069563866,
4.115,-0.013771362602710724,-0.009580078534781933,0.019160157069563866,
4.119,-0.013771362602710724,-0.009580078534781933,0.019160157069563866,
4.124,-0.013771362602710724,-0.009580078534781933,0.019160157069563866,
4.128,-0.013771362602710724,-0.009580078534781933,0.019160157069563866,
4.132,-0.013771362602710724,-0.009580078534781933,0.019160157069563866,
4.138,-0.013771362602710724,-0.009580078534781933,0.019160157069563866,
4.142,-0.013771362602710724,-0.009580078534781933,0.019160157069563866,
4.147,-0.013771362602710724,-0.009580078534781933,0.019160157069563866,
4.151,-0.013771362602710724,-0.009580078534781933,0.019160157069563866,
4.157,0.0005987549084238708,-0.015567627735435963,0.03353027626872063,
4.161,0.0005987549084238708,-0.015567627735435963,0.03353027626872063,
4.165,0.0005987549084238708,-0.015567627735435963,0.03353027626872063,
4.171,0.0005987549084238708,-0.015567627735435963,0.03353027626872063,
4.175,0.0005987549084238708,-0.015567627735435963,0.03353027626872063,
4.18,0.0005987549084238708,-0.015567627735435963,0.03353027626872063,
4.184,0.0005987549084238708,-0.015567627735435963,0.03353027626872063,
4.189,0.0005987549084238708,-0.015567627735435963,0.03353027626872063,
4.193,0.0005987549084238708,-0.015567627735435963,0.03353027626872063,
4.197,0.0005987549084238708,-0.015567627735435963,0.03353027626872063,
4.203,0.0005987549084238708,-0.015567627735435963,0.03353027626872063,
4.208,-0.02694397047162056,-0.037122804671525955,0.008382569067180157,
4.212,-0.02694397047162056,-0.037122804671525955,0.008382569067180157,
4.217,-0.02694397047162056,-0.037122804671525955,0.008382569067180157,
4.221,-0.02694397047162056,-0.037122804671525955,0.008382569067180157,
4.225,-0.02694397047162056,-0.037122804671525955,0.008382569067180157,
4.23,-0.02694397047162056,-0.037122804671525955,0.008382569067180157,
4.235,-0.02694397047162056,-0.037122804671525955,0.008382569067180157,
4.239,-0.02694397047162056,-0.037122804671525955,0.008382569067180157,
4.243,-0.02694397047162056,-0.037122804671525955,0.008382569067180157,
4.248,-0.02694397047162056,-0.037122804671525955,0.008382569067180157,
4.252,-0.02694397047162056,-0.037122804671525955,0.008382569067180157,
4.258,-0.025746461004018784,-0.0011975098168477416,-0.002395019633695483,
4.262,-0.025746461004018784,-0.0011975098168477416,-0.002395019633695483,
4.267,-0.025746461004018784,-0.0011975098168477416,-0.002395019633695483,
4.274,-0.025746461004018784,-0.0011975098168477416,-0.002395019633695483,
4.278,-0.025746461004018784,-0.0011975098168477416,-0.002395019633695483,
4.282,-0.025746461004018784,-0.0011975098168477416,-0.002395019633695483,
4.287,-0.025746461004018784,-0.0011975098168477416,-0.002395019633695483,
4.291,-0.025746461004018784,-0.0011975098168477416,-0.002395019633695483,
4.296,-0.025746461004018784,-0.0011975098168477416,-0.002395019633695483,
4.301,-0.025746461004018784,-0.0011975098168477416,-0.002395019633695483,
4.307,-0.0053887940011918545,-0.010777588002383709,-0.015567627735435963,
4.312,-0.0053887940011918545,-0.010777588002383709,-0.015567627735435963,
4.317,-0.0053887940011918545,-0.010777588002383709,-0.015567627735435963,
4.322,-0.0053887940011918545,-0.010777588002383709,-0.015567627735435963,
4.327,-0.0053887940011918545,-0.010777588002383709,-0.015567627735435963,
4.331,-0.0053887940011918545,-0.010777588002383709,-0.015567627735435963,
4.336,-0.0053887940011918545,-0.010777588002383709,-0.015567627735435963,
4.341,-0.0053887940011918545,-0.010777588002383709,-0.015567627735435963,
4.345,-0.0053887940011918545,-0.010777588002383709,-0.015567627735435963,
4.35,-0.0053887940011918545,-0.010777588002383709,-0.015567627735435963,
4.356,-0.03891906887292862,0.016765138134360313,-0.025147706270217896,
4.361,-0.03891906887292862,0.016765138134360313,-0.025147706270217896,
4.365,-0.03891906887292862,0.016765138134360313,-0.025147706270217896,
4.37,-0.03891906887292862,0.016765138134360313,-0.025147706270217896,
4.375,-0.03891906887292862,0.016765138134360313,-0.025147706270217896,
4.38,-0.03891906887292862,0.016765138134360313,-0.025147706270217896,
4.384,-0.03891906887292862,0.016765138134360313,-0.025147706270217896,
4.389,-0.03891906887292862,0.016765138134360313,-0.025147706270217896,
4.393,-0.03891906887292862,0.016765138134360313,-0.025147706270217896,
4.398,-0.03891906887292862,0.016765138134360313,-0.025147706270217896,
4.402,-0.011376343667507172,-0.010777588002383709,-0.043110352009534836,
4.407,-0.011376343667507172,-0.010777588002383709,-0.043110352009534836,
4.411,-0.011376343667507172,-0.010777588002383709,-0.043110352009534836,
4.415,-0.011376343667507172,-0.010777588002383709,-0.043110352009534836,
4.42,-0.011376343667507172,-0.010777588002383709,-0.043110352009534836,
4.425,-0.011376343667507172,-0.010777588002383709,-0.043110352009534836,
4.43,-0.011376343667507172,-0.010777588002383709,-0.043110352009534836,
4.436,-0.011376343667507172,-0.010777588002383709,-0.043110352009534836,
4.44,-0.011376343667507172,-0.010777588002383709,-0.043110352009534836,
4.445,-0.011376343667507172,-0.010777588002383709,-0.043110352009534836,
4.449,-0.011376343667507172,-0.010777588002383709,-0.043110352009534836,
4.454,-0.013771362602710724,-0.002395019633695483,0.010777588002383709,
4.459,-0.013771362602710724,-0.002395019633695483,0.010777588002383709,
4.463,-0.013771362602710724,-0.002395019633695483,0.010777588002383709,
4.468,-0.013771362602710724,-0.002395019633695483,0.010777588002383709,
4.474,-0.013771362602710724,-0.002395019633695483,0.010777588002383709,
4.479,-0.013771362602710724,-0.002395019633695483,0.010777588002383709,
4.484,-0.013771362602710724,-0.002395019633695483,0.010777588002383709,
4.489,-0.013771362602710724,-0.002395019633695483,0.010777588002383709,
4.493,-0.013771362602710724,-0.002395019633695483,0.010777588002383709,
4.498,-0.013771362602710724,-0.002395019633695483,0.010777588002383709,
4.502,-0.012573853135108948,0.002395019633695483,0.01197509840130806,
4.508,-0.012573853135108948,0.002395019633695483,0.01197509840130806,
4.513,-0.012573853135108948,0.002395019633695483,0.01197509840130806,
4.518,-0.012573853135108948,0.002395019633695483,0.01197509840130806,
4.522,-0.012573853135108948,0.002395019633695483,0.01197509840130806,
4.526,-0.012573853135108948,0.002395019633695483,0.01197509840130806,
4.531,-0.012573853135108948,0.002395019633695483,0.01197509840130806,
4.536,-0.012573853135108948,0.002395019633695483,0.01197509840130806,
4.541,-0.012573853135108948,0.002395019633695483,0.01197509840130806,
4.545,-0.012573853135108948,0.002395019633695483,0.01197509840130806,
4.55,-0.012573853135108948,0.002395019633695483,0.01197509840130806,
4.556,-0.022153930738568306,-0.013172607868909836,0.008382569067180157,
4.56,-0.022153930738568306,-0.013172607868909836,0.008382569067180157,
4.564,-0.022153930738568306,-0.013172607868909836,0.008382569067180157,
4.569,-0.022153930738568306,-0.013172607868909836,0.008382569067180157,
4.573,-0.022153930738568306,-0.013172607868909836,0.008382569067180157,
4.578,-0.022153930738568306,-0.013172607868909836,0.008382569067180157,
4.583,-0.022153930738568306,-0.013172607868909836,0.008382569067180157,
4.587,-0.022153930738568306,-0.013172607868909836,0.008382569067180157,
4.593,-0.022153930738568306,-0.013172607868909836,0.008382569067180157,
4.598,-0.022153930738568306,-0.013172607868909836,0.008382569067180157,
4.604,-0.03891906887292862,-0.031135255470871925,-0.016765138134360313,
4.609,-0.03891906887292862,-0.031135255470871925,-0.016765138134360313,
4.613,-0.03891906887292862,-0.031135255470871925,-0.016765138134360313,
4.618,-0.03891906887292862,-0.031135255470871925,-0.016765138134360313,
4.623,-0.03891906887292862,-0.031135255470871925,-0.016765138134360313,
4.628,-0.03891906887292862,-0.031135255470871925,-0.016765138134360313,
4.633,-0.03891906887292862,-0.031135255470871925,-0.016765138134360313,
4.638,-0.03891906887292862,-0.031135255470871925,-0.016765138134360313,
4.642,-0.03891906887292862,-0.031135255470871925,-0.016765138134360313,
4.647,-0.03891906887292862,-0.031135255470871925,-0.016765138134360313,
4.652,-0.0053887940011918545,0.007185058668255806,0.002395019633695483,
4.657,-0.0053887940011918545,0.007185058668255806,0.002395019633695483,
4.662,-0.0053887940011918545,0.007185058668255806,0.002395019633695483,
4.666,-0.0053887940011918545,0.007185058668255806,0.002395019633695483,
4.671,-0.0053887940011918545,0.007185058668255806,0.002395019633695483,
4.676,-0.0053887940011918545,0.007185058668255806,0.002395019633695483,
4.68,-0.0053887940011918545,0.007185058668255806,0.002395019633695483,
4.686,-0.0053887940011918545,0.007185058668255806,0.002395019633695483,
4.69,-0.0053887940011918545,0.007185058668255806,0.002395019633695483,
4.695,-0.0053887940011918545,0.007185058668255806,0.002395019633695483,
4.699,-0.0053887940011918545,0.007185058668255806,0.002395019633695483,
4.705,-0.030536500737071037,-0.013172607868909836,0,
4.71,-0.030536500737071037,-0.013172607868909836,0,
4.714,-0.030536500737071037,-0.013172607868909836,0,
4.719,-0.030536500737071037,-0.013172607868909836,0,
4.723,-0.030536500737071037,-0.013172607868909836,0,
4.727,-0.030536500737071037,-0.013172607868909836,0,
4.732,-0.030536500737071037,-0.013172607868909836,0,
4.737,-0.030536500737071037,-0.013172607868909836,0,
4.742,-0.030536500737071037,-0.013172607868909836,0,
4.747,-0.030536500737071037,-0.013172607868909836,0,
4.752,-0.018561402335762978,-0.0011975098168477416,-0.025147706270217896,
4.757,-0.018561402335762978,-0.0011975098168477416,-0.025147706270217896,
4.761,-0.018561402335762978,-0.0011975098168477416,-0.025147706270217896,
4.766,-0.018561402335762978,-0.0011975098168477416,-0.025147706270217896,
4.77,-0.018561402335762978,-0.0011975098168477416,-0.025147706270217896,
4.775,-0.018561402335762978,-0.0011975098168477416,-0.025147706270217896,
4.779,-0.018561402335762978,-0.0011975098168477416,-0.025147706270217896,
4.784,-0.018561402335762978,-0.0011975098168477416,-0.025147706270217896,
4.79,-0.018561402335762978,-0.0011975098168477416,-0.025147706270217896,
4.794,-0.018561402335762978,-0.0011975098168477416,-0.025147706270217896,
4.798,-0.018561402335762978,-0.0011975098168477416,-0.025147706270217896,
4.803,-0.004191284533590078,-0.008382569067180157,0.0347277857363224,
4.808,-0.004191284533590078,-0.008382569067180157,0.0347277857363224,
4.813,-0.004191284533590078,-0.008382569067180157,0.0347277857363224,
4.817,-0.004191284533590078,-0.008382569067180157,0.0347277857363224,
4.822,-0.004191284533590078,-0.008382569067180157,0.0347277857363224,
4.826,-0.004191284533590078,-0.008382569067180157,0.0347277857363224,
4.831,-0.004191284533590078,-0.008382569067180157,0.0347277857363224,
4.836,-0.004191284533590078,-0.008382569067180157,0.0347277857363224,
4.841,-0.004191284533590078,-0.008382569067180157,0.0347277857363224,
4.845,-0.004191284533590078,-0.008382569067180157,0.0347277857363224,
4.85,-0.02335144206881523,-0.004790039267390966,0.009580078534781933,
4.855,-0.02335144206881523,-0.004790039267390966,0.009580078534781933,
4.86,-0.02335144206881523,-0.004790039267390966,0.009580078534781933,
4.865,-0.02335144206881523,-0.004790039267390966,0.009580078534781933,
4.87,-0.02335144206881523,-0.004790039267390966,0.009580078534781933,
4.875,-0.02335144206881523,-0.004790039267390966,0.009580078534781933,
4.88,-0.02335144206881523,-0.004790039267390966,0.009580078534781933,
4.884,-0.02335144206881523,-0.004790039267390966,0.009580078534781933,
4.889,-0.02335144206881523,-0.004790039267390966,0.009580078534781933,
4.894,-0.02335144206881523,-0.004790039267390966,0.009580078534781933,
4.899,-0.010178833268582821,-0.007185058668255806,0.00598754920065403,
4.905,-0.010178833268582821,-0.007185058668255806,0.00598754920065403,
4.909,-0.010178833268582821,-0.007185058668255806,0.00598754920065403,
4.914,-0.010178833268582821,-0.007185058668255806,0.00598754920065403,
4.919,-0.010178833268582821,-0.007185058668255806,0.00598754920065403,
4.924,-0.010178833268582821,-0.007185058668255806,0.00598754920065403,
4.928,-0.010178833268582821,-0.007185058668255806,0.00598754920065403,
4.933,-0.010178833268582821,-0.007185058668255806,0.00598754920065403,
4.938,-0.010178833268582821,-0.007185058668255806,0.00598754920065403,
4.943,-0.010178833268582821,-0.007185058668255806,0.00598754920065403,
4.947,-0.010178833268582821,-0.007185058668255806,0.00598754920065403,
4.951,-0.02095642127096653,-0.016765138134360313,0.01796264760196209,
4.957,-0.02095642127096653,-0.016765138134360313,0.01796264760196209,
4.962,-0.02095642127096653,-0.016765138134360313,0.01796264760196209,
4.966,-0.02095642127096653,-0.016765138134360313,0.01796264760196209,
4.973,-0.02095642127096653,-0.016765138134360313,0.01796264760196209,
4.977,-0.02095642127096653,-0.016765138134360313,0.01796264760196209,
4.982,-0.02095642127096653,-0.016765138134360313,0.01796264760196209,
4.986,-0.02095642127096653,-0.016765138134360313,0.01796264760196209,
4.99,-0.02095642127096653,-0.016765138134360313,0.01796264760196209,
4.995,-0.02095642127096653,-0.016765138134360313,0.01796264760196209,
5,0.0017962646670639515,-0.004790039267390966,0.003592529334127903,
5.005,0.0017962646670639515,-0.004790039267390966,0.003592529334127903,
5.009,0.0017962646670639515,-0.004790039267390966,0.003592529334127903,
5.013,0.0017962646670639515,-0.004790039267390966,0.003592529334127903,
5.017,0.0017962646670639515,-0.004790039267390966,0.003592529334127903,
5.024,0.0017962646670639515,-0.004790039267390966,0.003592529334127903,
5.029,0.0017962646670639515,-0.004790039267390966,0.003592529334127903,
5.033,0.0017962646670639515,-0.004790039267390966,0.003592529334127903,
5.039,0.0017962646670639515,-0.004790039267390966,0.003592529334127903,
5.043,0.0017962646670639515,-0.004790039267390966,0.003592529334127903,
5.048,-0.03532654047012329,0.01197509840130806,0.02993774600327015,
5.053,-0.03532654047012329,0.01197509840130806,0.02993774600327015,
5.057,-0.03532654047012329,0.01197509840130806,0.02993774600327015,
5.061,-0.03532654047012329,0.01197509840130806,0.02993774600327015,
5.066,-0.03532654047012329,0.01197509840130806,0.02993774600327015,
5.071,-0.03532654047012329,0.01197509840130806,0.02993774600327015,
5.075,-0.03532654047012329,0.01197509840130806,0.02993774600327015,
5.079,-0.03532654047012329,0.01197509840130806,0.02993774600327015,
5.083,-0.03532654047012329,0.01197509840130806,0.02993774600327015,
5.088,-0.03532654047012329,0.01197509840130806,0.02993774600327015,
5.093,-0.03532654047012329,0.01197509840130806,0.02993774600327015,
5.097,-0.016166383400559425,-0.007185058668255806,0.007185058668255806,
5.102,-0.016166383400559425,-0.007185058668255806,0.007185058668255806,
5.107,-0.016166383400559425,-0.007185058668255806,0.007185058668255806,
5.111,-0.016166383400559425,-0.007185058668255806,0.007185058668255806,
5.116,-0.016166383400559425,-0.007185058668255806,0.007185058668255806,
5.121,-0.016166383400559425,-0.007185058668255806,0.007185058668255806,
5.126,-0.016166383400559425,-0.007185058668255806,0.007185058668255806,
5.13,-0.016166383400559425,-0.007185058668255806,0.007185058668255806,
5.137,-0.016166383400559425,-0.007185058668255806,0.007185058668255806,
5.141,-0.016166383400559425,-0.007185058668255806,0.007185058668255806,
5.146,-0.016166383400559425,-0.007185058668255806,0.007185058668255806,
5.151,-0.011376343667507172,0.0011975098168477416,0.00598754920065403,
5.156,-0.011376343667507172,0.0011975098168477416,0.00598754920065403,
5.16,-0.011376343667507172,0.0011975098168477416,0.00598754920065403,
5.165,-0.011376343667507172,0.0011975098168477416,0.00598754920065403,
5.171,-0.011376343667507172,0.0011975098168477416,0.00598754920065403,
5.176,-0.011376343667507172,0.0011975098168477416,0.00598754920065403,
5.18,-0.011376343667507172,0.0011975098168477416,0.00598754920065403,
5.185,-0.011376343667507172,0.0011975098168477416,0.00598754920065403,
5.191,-0.011376343667507172,0.0011975098168477416,0.00598754920065403,
5.196,-0.011376343667507172,0.0011975098168477416,0.00598754920065403,
5.201,-0.011376343667507172,-0.028740234673023224,0.020357666537165642,
5.207,-0.011376343667507172,-0.028740234673023224,0.020357666537165642,
5.212,-0.011376343667507172,-0.028740234673023224,0.020357666537165642,
5.217,-0.011376343667507172,-0.028740234673023224,0.020357666537165642,
5.222,-0.011376343667507172,-0.028740234673023224,0.020357666537165642,
5.226,-0.011376343667507172,-0.028740234673023224,0.020357666537165642,
5.231,-0.011376343667507172,-0.028740234673023224,0.020357666537165642,
5.237,-0.011376343667507172,-0.028740234673023224,0.020357666537165642,
5.242,-0.011376343667507172,-0.028740234673023224,0.020357666537165642,
5.246,-0.002993774600327015,0.004790039267390966,-0.013172607868909836,
5.25,-0.002993774600327015,0.004790039267390966,-0.013172607868909836,
5.256,-0.002993774600327015,0.004790039267390966,-0.013172607868909836,
5.26,-0.002993774600327015,0.004790039267390966,-0.013172607868909836,
5.264,-0.002993774600327015,0.004790039267390966,-0.013172607868909836,
5.269,-0.002993774600327015,0.004790039267390966,-0.013172607868909836,
5.274,-0.002993774600327015,0.004790039267390966,-0.013172607868909836,
5.279,-0.002993774600327015,0.004790039267390966,-0.013172607868909836,
5.284,-0.002993774600327015,0.004790039267390966,-0.013172607868909836,
5.289,-0.002993774600327015,0.004790039267390966,-0.013172607868909836,
5.293,-0.002993774600327015,0.004790039267390966,-0.013172607868909836,
5.298,-0.002993774600327015,-0.004790039267390966,-0.025147706270217896,
5.302,-0.002993774600327015,-0.004790039267390966,-0.025147706270217896,
5.307,-0.002993774600327015,-0.004790039267390966,-0.025147706270217896,
5.311,-0.002993774600327015,-0.004790039267390966,-0.025147706270217896,
5.317,-0.002993774600327015,-0.004790039267390966,-0.025147706270217896,
5.321,-0.002993774600327015,-0.004790039267390966,-0.025147706270217896,
5.326,-0.002993774600327015,-0.004790039267390966,-0.025147706270217896,
5.331,-0.002993774600327015,-0.004790039267390966,-0.025147706270217896,
5.336,-0.002993774600327015,-0.004790039267390966,-0.025147706270217896,
5.341,-0.002993774600327015,-0.004790039267390966,-0.025147706270217896,
5.345,-0.02933899126946926,-0.008382569067180157,-0.002395019633695483,
5.35,-0.02933899126946926,-0.008382569067180157,-0.002395019633695483,
5.356,-0.02933899126946926,-0.008382569067180157,-0.002395019633695483,
5.36,-0.02933899126946926,-0.008382569067180157,-0.002395019633695483,
5.365,-0.02933899126946926,-0.008382569067180157,-0.002395019633695483,
5.369,-0.02933899126946926,-0.008382569067180157,-0.002395019633695483,
5.375,-0.02933899126946926,-0.008382569067180157,-0.002395019633695483,
5.379,-0.02933899126946926,-0.008382569067180157,-0.002395019633695483,
5.383,-0.02933899126946926,-0.008382569067180157,-0.002395019633695483,
5.388,-0.02933899126946926,-0.008382569067180157,-0.002395019633695483,
5.392,-0.02933899126946926,-0.008382569067180157,-0.002395019633695483,
5.397,0.002993774600327015,-0.00598754920065403,0.00598754920065403,
5.402,0.002993774600327015,-0.00598754920065403,0.00598754920065403,
5.408,0.002993774600327015,-0.00598754920065403,0.00598754920065403,
5.412,0.002993774600327015,-0.00598754920065403,0.00598754920065403,
5.417,0.002993774600327015,-0.00598754920065403,0.00598754920065403,
5.423,0.002993774600327015,-0.00598754920065403,0.00598754920065403,
5.427,0.002993774600327015,-0.00598754920065403,0.00598754920065403,
5.432,0.002993774600327015,-0.00598754920065403,0.00598754920065403,
5.438,0.002993774600327015,-0.00598754920065403,0.00598754920065403,
5.442,0.002993774600327015,-0.00598754920065403,0.00598754920065403,
5.446,-0.02694397047162056,0.0011975098168477416,0.00598754920065403,
5.45,-0.02694397047162056,0.0011975098168477416,0.00598754920065403,
5.455,-0.02694397047162056,0.0011975098168477416,0.00598754920065403,
5.46,-0.02694397047162056,0.0011975098168477416,0.00598754920065403,
5.465,-0.02694397047162056,0.0011975098168477416,0.00598754920065403,
5.47,-0.02694397047162056,0.0011975098168477416,0.00598754920065403,
5.475,-0.02694397047162056,0.0011975098168477416,0.00598754920065403,
5.48,-0.02694397047162056,0.0011975098168477416,0.00598754920065403,
5.484,-0.02694397047162056,0.0011975098168477416,0.00598754920065403,
5.49,-0.02694397047162056,0.0011975098168477416,0.00598754920065403,
5.494,-0.012573853135108948,-0.00598754920065403,-0.002395019633695483,
5.499,-0.012573853135108948,-0.00598754920065403,-0.002395019633695483,
5.504,-0.012573853135108948,-0.00598754920065403,-0.002395019633695483,
5.509,-0.012573853135108948,-0.00598754920065403,-0.002395019633695483,
5.513,-0.012573853135108948,-0.00598754920065403,-0.002395019633695483,
5.517,-0.012573853135108948,-0.00598754920065403,-0.002395019633695483,
5.522,-0.012573853135108948,-0.00598754920065403,-0.002395019633695483,
5.526,-0.012573853135108948,-0.00598754920065403,-0.002395019633695483,
5.53,-0.012573853135108948,-0.00598754920065403,-0.002395019633695483,
5.536,-0.012573853135108948,-0.00598754920065403,-0.002395019633695483,
5.541,-0.012573853135108948,-0.00598754920065403,-0.002395019633695483,
5.545,0.006586303934454918,0.004790039267390966,0.009580078534781933,
5.549,0.006586303934454918,0.004790039267390966,0.009580078534781933,
5.554,0.006586303934454918,0.004790039267390966,0.009580078534781933,
5.558,0.006586303934454918,0.004790039267390966,0.009580078534781933,
5.563,0.006586303934454918,0.004790039267390966,0.009580078534781933,
5.568,0.006586303934454918,0.004790039267390966,0.009580078534781933,
5.573,0.006586303934454918,0.004790039267390966,0.009580078534781933,
5.577,0.006586303934454918,0.004790039267390966,0.009580078534781933,
5.582,0.006586303934454918,0.004790039267390966,0.009580078534781933,
5.587,0.006586303934454918,0.004790039267390966,0.009580078534781933,
5.591,0.006586303934454918,0.004790039267390966,0.009580078534781933,
5.596,-0.004191284533590078,-0.007185058668255806,-0.002395019633695483,
5.6,-0.004191284533590078,-0.007185058668255806,-0.002395019633695483,
5.605,-0.004191284533590078,-0.007185058668255806,-0.002395019633695483,
5.609,-0.004191284533590078,-0.007185058668255806,-0.002395019633695483,
5.613,-0.004191284533590078,-0.007185058668255806,-0.002395019633695483,
5.618,-0.004191284533590078,-0.007185058668255806,-0.002395019633695483,
5.622,-0.004191284533590078,-0.007185058668255806,-0.002395019633695483,
5.626,-0.004191284533590078,-0.007185058668255806,-0.002395019633695483,
5.63,-0.004191284533590078,-0.007185058668255806,-0.002395019633695483,
5.635,-0.004191284533590078,-0.007185058668255806,-0.002395019633695483,
5.639,-0.004191284533590078,-0.007185058668255806,-0.002395019633695483,
5.643,-0.02933899126946926,-0.007185058668255806,0.028740234673023224,
5.647,-0.02933899126946926,-0.007185058668255806,0.028740234673023224,
5.653,-0.02933899126946926,-0.007185058668255806,0.028740234673023224,
5.657,-0.02933899126946926,-0.007185058668255806,0.028740234673023224,
5.662,-0.02933899126946926,-0.007185058668255806,0.028740234673023224,
5.667,-0.02933899126946926,-0.007185058668255806,0.028740234673023224,
5.671,-0.02933899126946926,-0.007185058668255806,0.028740234673023224,
5.676,-0.02933899126946926,-0.007185058668255806,0.028740234673023224,
5.68,-0.02933899126946926,-0.007185058668255806,0.028740234673023224,
5.685,-0.02933899126946926,-0.007185058668255806,0.028740234673023224,
5.689,-0.02933899126946926,-0.007185058668255806,0.028740234673023224,
5.693,-0.006586303934454918,-0.014370117336511612,0.0011975098168477416,
5.697,-0.006586303934454918,-0.014370117336511612,0.0011975098168477416,
5.702,-0.006586303934454918,-0.014370117336511612,0.0011975098168477416,
5.706,-0.006586303934454918,-0.014370117336511612,0.0011975098168477416,
5.71,-0.006586303934454918,-0.014370117336511612,0.0011975098168477416,
5.714,-0.006586303934454918,-0.014370117336511612,0.0011975098168477416,
5.719,-0.006586303934454918,-0.014370117336511612,0.0011975098168477416,
5.724,-0.006586303934454918,-0.014370117336511612,0.0011975098168477416,
5.729,-0.006586303934454918,-0.014370117336511612,0.0011975098168477416,
5.734,-0.006586303934454918,-0.014370117336511612,0.0011975098168477416,
5.739,-0.006586303934454918,-0.014370117336511612,0.0011975098168477416,
5.743,-0.010178833268582821,0.0011975098168477416,0.019160157069563866,
5.747,-0.010178833268582821,0.0011975098168477416,0.019160157069563866,
5.753,-0.010178833268582821,0.0011975098168477416,0.019160157069563866,
5.758,-0.010178833268582821,0.0011975098168477416,0.019160157069563866,
5.763,-0.010178833268582821,0.0011975098168477416,0.019160157069563866,
5.767,-0.010178833268582821,0.0011975098168477416,0.019160157069563866,
5.771,-0.010178833268582821,0.0011975098168477416,0.019160157069563866,
5.776,-0.010178833268582821,0.0011975098168477416,0.019160157069563866,
5.781,-0.010178833268582821,0.0011975098168477416,0.019160157069563866,
5.785,-0.010178833268582821,0.0011975098168477416,0.019160157069563866,
5.789,-0.010178833268582821,0.0011975098168477416,0.019160157069563866,
5.794,-0.014968873001635075,-0.003592529334127903,0.00598754920065403,
5.799,-0.014968873001635075,-0.003592529334127903,0.00598754920065403,
5.803,-0.014968873001635075,-0.003592529334127903,0.00598754920065403,
5.808,-0.014968873001635075,-0.003592529334127903,0.00598754920065403,
5.815,-0.014968873001635075,-0.003592529334127903,0.00598754920065403,
5.82,-0.014968873001635075,-0.003592529334127903,0.00598754920065403,
5.825,-0.014968873001635075,-0.003592529334127903,0.00598754920065403,
5.83,-0.014968873001635075,-0.003592529334127903,0.00598754920065403,
5.836,-0.014968873001635075,-0.003592529334127903,0.00598754920065403,
5.841,-0.024548951536417007,-0.002395019633695483,0.008382569067180157,
5.845,-0.024548951536417007,-0.002395019633695483,0.008382569067180157,
5.85,-0.024548951536417007,-0.002395019633695483,0.008382569067180157,
5.856,-0.024548951536417007,-0.002395019633695483,0.008382569067180157,
5.86,-0.024548951536417007,-0.002395019633695483,0.008382569067180157,
5.864,-0.024548951536417007,-0.002395019633695483,0.008382569067180157,
5.869,-0.024548951536417007,-0.002395019633695483,0.008382569067180157,
5.874,-0.024548951536417007,-0.002395019633695483,0.008382569067180157,
5.878,-0.024548951536417007,-0.002395019633695483,0.008382569067180157,
5.882,-0.024548951536417007,-0.002395019633695483,0.008382569067180157,
5.887,-0.024548951536417007,-0.002395019633695483,0.008382569067180157,
5.891,0.007783813867717981,-0.02634521573781967,0.010777588002383709,
5.895,0.007783813867717981,-0.02634521573781967,0.010777588002383709,
5.9,0.007783813867717981,-0.02634521573781967,0.010777588002383709,
5.904,0.007783813867717981,-0.02634521573781967,0.010777588002383709,
5.909,0.007783813867717981,-0.02634521573781967,0.010777588002383709,
5.914,0.007783813867717981,-0.02634521573781967,0.010777588002383709,
5.919,0.007783813867717981,-0.02634521573781967,0.010777588002383709,
5.923,0.007783813867717981,-0.02634521573781967,0.010777588002383709,
5.928,0.007783813867717981,-0.02634521573781967,0.010777588002383709,
5.932,0.007783813867717981,-0.02634521573781967,0.010777588002383709,
5.937,0.007783813867717981,-0.02634521573781967,0.010777588002383709,
5.942,0.004191284533590078,0.008382569067180157,-0.004790039267390966,
5.946,0.004191284533590078,0.008382569067180157,-0.004790039267390966,
5.951,0.004191284533590078,0.008382569067180157,-0.004790039267390966,
5.957,0.004191284533590078,0.008382569067180157,-0.004790039267390966,
5.961,0.004191284533590078,0.008382569067180157,-0.004790039267390966,
5.965,0.004191284533590078,0.008382569067180157,-0.004790039267390966,
5.97,0.004191284533590078,0.008382569067180157,-0.004790039267390966,
5.975,0.004191284533590078,0.008382569067180157,-0.004790039267390966,
5.979,0.004191284533590078,0.008382569067180157,-0.004790039267390966,
5.983,0.004191284533590078,0.008382569067180157,-0.004790039267390966,
5.989,0.004191284533590078,0.008382569067180157,-0.004790039267390966,
5.993,-0.014968873001635075,0.00598754920065403,0.031135255470871925,
5.997,-0.014968873001635075,0.00598754920065403,0.031135255470871925,
6.002,-0.014968873001635075,0.00598754920065403,0.031135255470871925,
6.007,-0.014968873001635075,0.00598754920065403,0.031135255470871925,
6.011,-0.014968873001635075,0.00598754920065403,0.031135255470871925,
6.015,-0.014968873001635075,0.00598754920065403,0.031135255470871925,
6.021,-0.014968873001635075,0.00598754920065403,0.031135255470871925,
6.026,-0.014968873001635075,0.00598754920065403,0.031135255470871925,
6.031,-0.014968873001635075,0.00598754920065403,0.031135255470871925,
6.035,-0.014968873001635075,0.00598754920065403,0.031135255470871925,
6.04,0.0017962646670639515,0.00598754920065403,-0.003592529334127903,
6.044,0.0017962646670639515,0.00598754920065403,-0.003592529334127903,
6.048,0.0017962646670639515,0.00598754920065403,-0.003592529334127903,
6.054,0.0017962646670639515,0.00598754920065403,-0.003592529334127903,
6.058,0.0017962646670639515,0.00598754920065403,-0.003592529334127903,
6.063,0.0017962646670639515,0.00598754920065403,-0.003592529334127903,
6.067,0.0017962646670639515,0.00598754920065403,-0.003592529334127903,
6.073,0.0017962646670639515,0.00598754920065403,-0.003592529334127903,
6.078,0.0017962646670639515,0.00598754920065403,-0.003592529334127903,
6.082,0.0017962646670639515,0.00598754920065403,-0.003592529334127903,
6.087,0.0017962646670639515,0.00598754920065403,-0.003592529334127903,
6.092,-0.02335144206881523,-0.025147706270217896,-0.002395019633695483,
6.096,-0.02335144206881523,-0.025147706270217896,-0.002395019633695483,
6.1,-0.02335144206881523,-0.025147706270217896,-0.002395019633695483,
6.105,-0.02335144206881523,-0.025147706270217896,-0.002395019633695483,
6.109,-0.02335144206881523,-0.025147706270217896,-0.002395019633695483,
6.114,-0.02335144206881523,-0.025147706270217896,-0.002395019633695483,
6.12,-0.02335144206881523,-0.025147706270217896,-0.002395019633695483,
6.125,-0.02335144206881523,-0.025147706270217896,-0.002395019633695483,
6.129,-0.02335144206881523,-0.025147706270217896,-0.002395019633695483,
6.134,-0.02335144206881523,-0.025147706270217896,-0.002395019633695483,
6.138,0.011376343667507172,0.008382569067180157,0,
6.143,0.011376343667507172,0.008382569067180157,0,
6.147,0.011376343667507172,0.008382569067180157,0,
6.151,0.011376343667507172,0.008382569067180157,0,
6.156,0.011376343667507172,0.008382569067180157,0,
6.161,0.011376343667507172,0.008382569067180157,0,
6.166,0.011376343667507172,0.008382569067180157,0,
6.172,0.011376343667507172,0.008382569067180157,0,
6.177,0.011376343667507172,0.008382569067180157,0,
6.181,0.011376343667507172,0.008382569067180157,0,
6.186,0.011376343667507172,0.008382569067180157,0,
6.191,-0.0005987549084238708,-0.013172607868909836,0.01197509840130806,
6.196,-0.0005987549084238708,-0.013172607868909836,0.01197509840130806,
6.2,-0.0005987549084238708,-0.013172607868909836,0.01197509840130806,
6.206,-0.0005987549084238708,-0.013172607868909836,0.01197509840130806,
6.21,-0.0005987549084238708,-0.013172607868909836,0.01197509840130806,
6.215,-0.0005987549084238708,-0.013172607868909836,0.01197509840130806,
6.219,-0.0005987549084238708,-0.013172607868909836,0.01197509840130806,
6.226,-0.0005987549084238708,-0.013172607868909836,0.01197509840130806,
6.23,-0.0005987549084238708,-0.013172607868909836,0.01197509840130806,
6.235,-0.0005987549084238708,-0.013172607868909836,0.01197509840130806,
6.242,-0.011376343667507172,-0.014370117336511612,0.0011975098168477416,
6.246,-0.011376343667507172,-0.014370117336511612,0.0011975098168477416,
6.251,-0.011376343667507172,-0.014370117336511612,0.0011975098168477416,
6.255,-0.011376343667507172,-0.014370117336511612,0.0011975098168477416,
6.26,-0.011376343667507172,-0.014370117336511612,0.0011975098168477416,
6.265,-0.011376343667507172,-0.014370117336511612,0.0011975098168477416,
6.269,-0.011376343667507172,-0.014370117336511612,0.0011975098168477416,
6.273,-0.011376343667507172,-0.014370117336511612,0.0011975098168477416,
6.278,-0.011376343667507172,-0.014370117336511612,0.0011975098168477416,
6.283,-0.011376343667507172,-0.014370117336511612,0.0011975098168477416,
6.288,-0.028141479939222336,-0.025147706270217896,0.002395019633695483,
6.293,-0.028141479939222336,-0.025147706270217896,0.002395019633695483,
6.297,-0.028141479939222336,-0.025147706270217896,0.002395019633695483,
6.301,-0.028141479939222336,-0.025147706270217896,0.002395019633695483,
6.306,-0.028141479939222336,-0.025147706270217896,0.002395019633695483,
6.311,-0.028141479939222336,-0.025147706270217896,0.002395019633695483,
6.316,-0.028141479939222336,-0.025147706270217896,0.002395019633695483,
6.322,-0.028141479939222336,-0.025147706270217896,0.002395019633695483,
6.327,-0.028141479939222336,-0.025147706270217896,0.002395019633695483,
6.331,-0.028141479939222336,-0.025147706270217896,0.002395019633695483,
6.335,-0.028141479939222336,-0.025147706270217896,0.002395019633695483,
6.34,-0.008981323800981045,0.016765138134360313,0.008382569067180157,
6.344,-0.008981323800981045,0.016765138134360313,0.008382569067180157,
6.348,-0.008981323800981045,0.016765138134360313,0.008382569067180157,
6.355,-0.008981323800981045,0.016765138134360313,0.008382569067180157,
6.359,-0.008981323800981045,0.016765138134360313,0.008382569067180157,
6.363,-0.008981323800981045,0.016765138134360313,0.008382569067180157,
6.368,-0.008981323800981045,0.016765138134360313,0.008382569067180157,
6.372,-0.008981323800981045,0.016765138134360313,0.008382569067180157,
6.376,-0.008981323800981045,0.016765138134360313,0.008382569067180157,
6.38,-0.008981323800981045,0.016765138134360313,0.008382569067180157,
6.385,-0.008981323800981045,0.016765138134360313,0.008382569067180157,
6.391,-0.016166383400559425,-0.010777588002383709,-0.002395019633695483,
6.395,-0.016166383400559425,-0.010777588002383709,-0.002395019633695483,
6.4,-0.016166383400559425,-0.010777588002383709,-0.002395019633695483,
6.406,-0.016166383400559425,-0.010777588002383709,-0.002395019633695483,
6.41,-0.016166383400559425,-0.010777588002383709,-0.002395019633695483,
6.414,-0.016166383400559425,-0.010777588002383709,-0.002395019633695483,
6.418,-0.016166383400559425,-0.010777588002383709,-0.002395019633695483,
6.423,-0.016166383400559425,-0.010777588002383709,-0.002395019633695483,
6.428,-0.016166383400559425,-0.010777588002383709,-0.002395019633695483,
6.432,-0.016166383400559425,-0.010777588002383709,-0.002395019633695483,
6.437,-0.016166383400559425,0.010777588002383709,-0.020357666537165642,
6.442,-0.016166383400559425,0.010777588002383709,-0.020357666537165642,
6.446,-0.016166383400559425,0.010777588002383709,-0.020357666537165642,
6.45,-0.016166383400559425,0.010777588002383709,-0.020357666537165642,
6.456,-0.016166383400559425,0.010777588002383709,-0.020357666537165642,
6.46,-0.016166383400559425,0.010777588002383709,-0.020357666537165642,
6.465,-0.016166383400559425,0.010777588002383709,-0.020357666537165642,
6.469,-0.016166383400559425,0.010777588002383709,-0.020357666537165642,
6.474,-0.016166383400559425,0.010777588002383709,-0.020357666537165642,
6.479,-0.016166383400559425,0.010777588002383709,-0.020357666537165642,
6.483,-0.016166383400559425,0.010777588002383709,-0.020357666537165642,
6.489,-0.006586303934454918,0,-0.008382569067180157,
6.493,-0.006586303934454918,0,-0.008382569067180157,
6.497,-0.006586303934454918,0,-0.008382569067180157,
6.503,-0.006586303934454918,0,-0.008382569067180157,
6.508,-0.006586303934454918,0,-0.008382569067180157,
6.513,-0.006586303934454918,0,-0.008382569067180157,
6.517,-0.006586303934454918,0,-0.008382569067180157,
6.525,-0.006586303934454918,0,-0.008382569067180157,
6.529,-0.006586303934454918,0,-0.008382569067180157,
6.534,-0.006586303934454918,0,-0.008382569067180157,
6.538,-0.0173638928681612,0.013172607868909836,0.010777588002383709,
6.543,-0.0173638928681612,0.013172607868909836,0.010777588002383709,
6.547,-0.0173638928681612,0.013172607868909836,0.010777588002383709,
6.552,-0.0173638928681612,0.013172607868909836,0.010777588002383709,
6.557,-0.0173638928681612,0.013172607868909836,0.010777588002383709,
6.561,-0.0173638928681612,0.013172607868909836,0.010777588002383709,
6.566,-0.0173638928681612,0.013172607868909836,0.010777588002383709,
6.571,-0.0173638928681612,0.013172607868909836,0.010777588002383709,
6.575,-0.0173638928681612,0.013172607868909836,0.010777588002383709,
6.579,-0.0173638928681612,0.013172607868909836,0.010777588002383709,
6.584,-0.0173638928681612,0.013172607868909836,0.010777588002383709,
6.59,-0.031734008342027664,-0.002395019633695483,0.004790039267390966,
6.595,-0.031734008342027664,-0.002395019633695483,0.004790039267390966,
6.599,-0.031734008342027664,-0.002395019633695483,0.004790039267390966,
6.604,-0.031734008342027664,-0.002395019633695483,0.004790039267390966,
6.609,-0.031734008342027664,-0.002395019633695483,0.004790039267390966,
6.614,-0.031734008342027664,-0.002395019633695483,0.004790039267390966,
6.618,-0.031734008342027664,-0.002395019633695483,0.004790039267390966,
6.623,-0.031734008342027664,-0.002395019633695483,0.004790039267390966,
6.628,-0.031734008342027664,-0.002395019633695483,0.004790039267390966,
6.632,-0.031734008342027664,-0.002395019633695483,0.004790039267390966,
6.638,-0.03293152153491974,-0.007185058668255806,0.004790039267390966,
6.642,-0.03293152153491974,-0.007185058668255806,0.004790039267390966,
6.647,-0.03293152153491974,-0.007185058668255806,0.004790039267390966,
6.651,-0.03293152153491974,-0.007185058668255806,0.004790039267390966,
6.657,-0.03293152153491974,-0.007185058668255806,0.004790039267390966,
6.661,-0.03293152153491974,-0.007185058668255806,0.004790039267390966,
6.665,-0.03293152153491974,-0.007185058668255806,0.004790039267390966,
6.67,-0.03293152153491974,-0.007185058668255806,0.004790039267390966,
6.674,-0.03293152153491974,-0.007185058668255806,0.004790039267390966,
6.678,-0.03293152153491974,-0.007185058668255806,0.004790039267390966,
6.683,-0.03293152153491974,-0.007185058668255806,0.004790039267390966,
6.688,-0.05688171461224556,-0.010777588002383709,-0.020357666537165642,
6.693,-0.05688171461224556,-0.010777588002383709,-0.020357666537165642,
6.697,-0.05688171461224556,-0.010777588002383709,-0.020357666537165642,
6.703,-0.05688171461224556,-0.010777588002383709,-0.020357666537165642,
6.708,-0.05688171461224556,-0.010777588002383709,-0.020357666537165642,
6.712,-0.05688171461224556,-0.010777588002383709,-0.020357666537165642,
6.717,-0.05688171461224556,-0.010777588002383709,-0.020357666537165642,
6.723,-0.05688171461224556,-0.010777588002383709,-0.020357666537165642,
6.727,-0.05688171461224556,-0.010777588002383709,-0.020357666537165642,
6.731,-0.05688171461224556,-0.010777588002383709,-0.020357666537165642,
6.735,-0.019758911803364754,-0.008382569067180157,-0.002395019633695483,
6.74,-0.019758911803364754,-0.008382569067180157,-0.002395019633695483,
6.744,-0.019758911803364754,-0.008382569067180157,-0.002395019633695483,
6.748,-0.019758911803364754,-0.008382569067180157,-0.002395019633695483,
6.752,-0.019758911803364754,-0.008382569067180157,-0.002395019633695483,
6.757,-0.019758911803364754,-0.008382569067180157,-0.002395019633695483,
6.761,-0.019758911803364754,-0.008382569067180157,-0.002395019633695483,
6.765,-0.019758911803364754,-0.008382569067180157,-0.002395019633695483,
6.77,-0.019758911803364754,-0.008382569067180157,-0.002395019633695483,
6.776,-0.019758911803364754,-0.008382569067180157,-0.002395019633695483,
6.78,-0.019758911803364754,-0.008382569067180157,-0.002395019633695483,
6.784,-0.031734008342027664,-0.015567627735435963,-0.010777588002383709,
6.789,-0.031734008342027664,-0.015567627735435963,-0.010777588002383709,
6.793,-0.031734008342027664,-0.015567627735435963,-0.010777588002383709,
6.797,-0.031734008342027664,-0.015567627735435963,-0.010777588002383709,
6.802,-0.031734008342027664,-0.015567627735435963,-0.010777588002383709,
6.807,-0.031734008342027664,-0.015567627735435963,-0.010777588002383709,
6.811,-0.031734008342027664,-0.015567627735435963,-0.010777588002383709,
6.815,-0.031734008342027664,-0.015567627735435963,-0.010777588002383709,
6.82,-0.031734008342027664,-0.015567627735435963,-0.010777588002383709,
6.825,-0.031734008342027664,-0.015567627735435963,-0.010777588002383709,
6.829,-0.031734008342027664,-0.015567627735435963,-0.010777588002383709,
6.833,-0.02095642127096653,0.008382569067180157,0.01796264760196209,
6.838,-0.02095642127096653,0.008382569067180157,0.01796264760196209,
6.842,-0.02095642127096653,0.008382569067180157,0.01796264760196209,
6.846,-0.02095642127096653,0.008382569067180157,0.01796264760196209,
6.851,-0.02095642127096653,0.008382569067180157,0.01796264760196209,
6.856,-0.02095642127096653,0.008382569067180157,0.01796264760196209,
6.86,-0.02095642127096653,0.008382569067180157,0.01796264760196209,
6.866,-0.02095642127096653,0.008382569067180157,0.01796264760196209,
6.87,-0.02095642127096653,0.008382569067180157,0.01796264760196209,
6.875,-0.02095642127096653,0.008382569067180157,0.01796264760196209,
6.879,-0.02095642127096653,0.008382569067180157,0.01796264760196209,
6.884,0.007783813867717981,0.016765138134360313,-0.004790039267390966,
6.889,0.007783813867717981,0.016765138134360313,-0.004790039267390966,
6.893,0.007783813867717981,0.016765138134360313,-0.004790039267390966,
6.897,0.007783813867717981,0.016765138134360313,-0.004790039267390966,
6.902,0.007783813867717981,0.016765138134360313,-0.004790039267390966,
6.908,0.007783813867717981,0.016765138134360313,-0.004790039267390966,
6.912,0.007783813867717981,0.016765138134360313,-0.004790039267390966,
6.916,0.007783813867717981,0.016765138134360313,-0.004790039267390966,
6.921,0.007783813867717981,0.016765138134360313,-0.004790039267390966,
6.926,0.007783813867717981,0.016765138134360313,-0.004790039267390966,
6.93,0.007783813867717981,0.016765138134360313,-0.004790039267390966,
6.936,-0.018561402335762978,-0.004790039267390966,0.01197509840130806,
6.94,-0.018561402335762978,-0.004790039267390966,0.01197509840130806,
6.944,-0.018561402335762978,-0.004790039267390966,0.01197509840130806,
6.948,-0.018561402335762978,-0.004790039267390966,0.01197509840130806,
6.953,-0.018561402335762978,-0.004790039267390966,0.01197509840130806,
6.959,-0.018561402335762978,-0.004790039267390966,0.01197509840130806,
6.964,-0.018561402335762978,-0.004790039267390966,0.01197509840130806,
6.97,-0.018561402335762978,-0.004790039267390966,0.01197509840130806,
6.975,-0.018561402335762978,-0.004790039267390966,0.01197509840130806,
6.979,-0.018561402335762978,-0.004790039267390966,0.01197509840130806,
6.984,0.008981323800981045,0.019160157069563866,0.0011975098168477416,
6.988,0.008981323800981045,0.019160157069563866,0.0011975098168477416,
6.993,0.008981323800981045,0.019160157069563866,0.0011975098168477416,
6.997,0.008981323800981045,0.019160157069563866,0.0011975098168477416,
7.002,0.008981323800981045,0.019160157069563866,0.0011975098168477416,
7.008,0.008981323800981045,0.019160157069563866,0.0011975098168477416,
7.012,0.008981323800981045,0.019160157069563866,0.0011975098168477416,
7.017,0.008981323800981045,0.019160157069563866,0.0011975098168477416,
7.023,0.008981323800981045,0.019160157069563866,0.0011975098168477416,
7.028,0.008981323800981045,0.019160157069563866,0.0011975098168477416,
7.033,-0.011376343667507172,-0.03951782360672951,0.004790039267390966,
7.038,-0.011376343667507172,-0.03951782360672951,0.004790039267390966,
7.043,-0.011376343667507172,-0.03951782360672951,0.004790039267390966,
7.047,-0.011376343667507172,-0.03951782360672951,0.004790039267390966,
7.052,-0.011376343667507172,-0.03951782360672951,0.004790039267390966,
7.058,-0.011376343667507172,-0.03951782360672951,0.004790039267390966,
7.062,-0.011376343667507172,-0.03951782360672951,0.004790039267390966,
7.066,-0.011376343667507172,-0.03951782360672951,0.004790039267390966,
7.071,-0.011376343667507172,-0.03951782360672951,0.004790039267390966,
7.075,-0.011376343667507172,-0.03951782360672951,0.004790039267390966,
7.079,-0.011376343667507172,-0.03951782360672951,0.004790039267390966,
7.084,-0.008981323800981045,0.003592529334127903,0.016765138134360313,
7.09,-0.008981323800981045,0.003592529334127903,0.016765138134360313,
7.094,-0.008981323800981045,0.003592529334127903,0.016765138134360313,
7.098,-0.008981323800981045,0.003592529334127903,0.016765138134360313,
7.103,-0.008981323800981045,0.003592529334127903,0.016765138134360313,
7.109,-0.008981323800981045,0.003592529334127903,0.016765138134360313,
7.114,-0.008981323800981045,0.003592529334127903,0.016765138134360313,
7.12,-0.008981323800981045,0.003592529334127903,0.016765138134360313,
7.124,-0.008981323800981045,0.003592529334127903,0.016765138134360313,
7.128,-0.008981323800981045,0.003592529334127903,0.016765138134360313,
7.132,0.004191284533590078,0.03353027626872063,-0.00598754920065403,
7.137,0.004191284533590078,0.03353027626872063,-0.00598754920065403,
7.141,0.004191284533590078,0.03353027626872063,-0.00598754920065403,
7.146,0.004191284533590078,0.03353027626872063,-0.00598754920065403,
7.151,0.004191284533590078,0.03353027626872063,-0.00598754920065403,
7.155,0.004191284533590078,0.03353027626872063,-0.00598754920065403,
7.16,0.004191284533590078,0.03353027626872063,-0.00598754920065403,
7.164,0.004191284533590078,0.03353027626872063,-0.00598754920065403,
7.169,0.004191284533590078,0.03353027626872063,-0.00598754920065403,
7.174,0.004191284533590078,0.03353027626872063,-0.00598754920065403,
7.178,0.004191284533590078,0.03353027626872063,-0.00598754920065403,
7.182,-0.02335144206881523,-0.002395019633695483,0.01197509840130806,
7.187,-0.02335144206881523,-0.002395019633695483,0.01197509840130806,
7.192,-0.02335144206881523,-0.002395019633695483,0.01197509840130806,
7.196,-0.02335144206881523,-0.002395019633695483,0.01197509840130806,
7.201,-0.02335144206881523,-0.002395019633695483,0.01197509840130806,
7.206,-0.02335144206881523,-0.002395019633695483,0.01197509840130806,
7.21,-0.02335144206881523,-0.002395019633695483,0.01197509840130806,
7.215,-0.02335144206881523,-0.002395019633695483,0.01197509840130806,
7.219,-0.02335144206881523,-0.002395019633695483,0.01197509840130806,
7.223,-0.02335144206881523,-0.002395019633695483,0.01197509840130806,
7.227,-0.02335144206881523,-0.002395019633695483,0.01197509840130806,
7.231,-0.022153930738568306,-0.04191284254193306,0.014370117336511612,
7.238,-0.022153930738568306,-0.04191284254193306,0.014370117336511612,
7.244,-0.022153930738568306,-0.04191284254193306,0.014370117336511612,
7.247,-0.022153930738568306,-0.04191284254193306,0.014370117336511612,
7.252,-0.022153930738568306,-0.04191284254193306,0.014370117336511612,
7.257,-0.022153930738568306,-0.04191284254193306,0.014370117336511612,
7.261,-0.022153930738568306,-0.04191284254193306,0.014370117336511612,
7.265,-0.022153930738568306,-0.04191284254193306,0.014370117336511612,
7.27,-0.022153930738568306,-0.04191284254193306,0.014370117336511612,
7.274,-0.022153930738568306,-0.04191284254193306,0.014370117336511612,
7.279,-0.022153930738568306,-0.04191284254193306,0.014370117336511612,
7.283,-0.0005987549084238708,0.01197509840130806,-0.013172607868909836,
7.288,-0.0005987549084238708,0.01197509840130806,-0.013172607868909836,
7.293,-0.0005987549084238708,0.01197509840130806,-0.013172607868909836,
7.297,-0.0005987549084238708,0.01197509840130806,-0.013172607868909836,
7.301,-0.0005987549084238708,0.01197509840130806,-0.013172607868909836,
7.306,-0.0005987549084238708,0.01197509840130806,-0.013172607868909836,
7.31,-0.0005987549084238708,0.01197509840130806,-0.013172607868909836,
7.314,-0.0005987549084238708,0.01197509840130806,-0.013172607868909836,
7.319,-0.0005987549084238708,0.01197509840130806,-0.013172607868909836,
7.324,-0.0005987549084238708,0.01197509840130806,-0.013172607868909836,
7.329,-0.0005987549084238708,0.01197509840130806,-0.013172607868909836,
7.334,-0.007783813867717981,0.020357666537165642,-0.03233276680111885,
7.338,-0.007783813867717981,0.020357666537165642,-0.03233276680111885,
7.343,-0.007783813867717981,0.020357666537165642,-0.03233276680111885,
7.347,-0.007783813867717981,0.020357666537165642,-0.03233276680111885,
7.352,-0.007783813867717981,0.020357666537165642,-0.03233276680111885,
7.357,-0.007783813867717981,0.020357666537165642,-0.03233276680111885,
7.362,-0.007783813867717981,0.020357666537165642,-0.03233276680111885,
7.366,-0.007783813867717981,0.020357666537165642,-0.03233276680111885,
7.372,-0.007783813867717981,0.020357666537165642,-0.03233276680111885,
7.376,-0.007783813867717981,0.020357666537165642,-0.03233276680111885,
7.38,-0.013771362602710724,0.004790039267390966,0.02634521573781967,
7.385,-0.013771362602710724,0.004790039267390966,0.02634521573781967,
7.392,-0.013771362602710724,0.004790039267390966,0.02634521573781967,
7.396,-0.013771362602710724,0.004790039267390966,0.02634521573781967,
7.401,-0.013771362602710724,0.004790039267390966,0.02634521573781967,
7.405,-0.013771362602710724,0.004790039267390966,0.02634521573781967,
7.409,-0.013771362602710724,0.004790039267390966,0.02634521573781967,
7.413,-0.013771362602710724,0.004790039267390966,0.02634521573781967,
7.418,-0.013771362602710724,0.004790039267390966,0.02634521573781967,
7.423,-0.013771362602710724,0.004790039267390966,0.02634521573781967,
7.429,0.0005987549084238708,0.0011975098168477416,-0.010777588002383709,
7.433,0.0005987549084238708,0.0011975098168477416,-0.010777588002383709,
7.439,0.0005987549084238708,0.0011975098168477416,-0.010777588002383709,
7.443,0.0005987549084238708,0.0011975098168477416,-0.010777588002383709,
7.447,0.0005987549084238708,0.0011975098168477416,-0.010777588002383709,
7.451,0.0005987549084238708,0.0011975098168477416,-0.010777588002383709,
7.456,0.0005987549084238708,0.0011975098168477416,-0.010777588002383709,
7.46,0.0005987549084238708,0.0011975098168477416,-0.010777588002383709,
7.465,0.0005987549084238708,0.0011975098168477416,-0.010777588002383709,
7.471,0.0005987549084238708,0.0011975098168477416,-0.010777588002383709,
7.475,0.0005987549084238708,0.0011975098168477416,-0.010777588002383709,
7.479,-0.040116578340530396,-0.020357666537165642,0.027542725205421448,
7.483,-0.040116578340530396,-0.020357666537165642,0.027542725205421448,
7.487,-0.040116578340530396,-0.020357666537165642,0.027542725205421448,
7.491,-0.040116578340530396,-0.020357666537165642,0.027542725205421448,
7.495,-0.040116578340530396,-0.020357666537165642,0.027542725205421448,
7.5,-0.040116578340530396,-0.020357666537165642,0.027542725205421448,
7.504,-0.040116578340530396,-0.020357666537165642,0.027542725205421448,
7.509,-0.040116578340530396,-0.020357666537165642,0.027542725205421448,
7.514,-0.040116578340530396,-0.020357666537165642,0.027542725205421448,
7.519,-0.040116578340530396,-0.020357666537165642,0.027542725205421448,
7.524,-0.040116578340530396,-0.020357666537165642,0.027542725205421448,
7.528,-0.03532654047012329,-0.02634521573781967,-0.009580078534781933,
7.533,-0.03532654047012329,-0.02634521573781967,-0.009580078534781933,
7.537,-0.03532654047012329,-0.02634521573781967,-0.009580078534781933,
7.541,-0.03532654047012329,-0.02634521573781967,-0.009580078534781933,
7.546,-0.03532654047012329,-0.02634521573781967,-0.009580078534781933,
7.55,-0.03532654047012329,-0.02634521573781967,-0.009580078534781933,
7.555,-0.03532654047012329,-0.02634521573781967,-0.009580078534781933,
7.559,-0.03532654047012329,-0.02634521573781967,-0.009580078534781933,
7.564,-0.03532654047012329,-0.02634521573781967,-0.009580078534781933,
7.57,-0.03532654047012329,-0.02634521573781967,-0.009580078534781933,
7.575,-0.03532654047012329,-0.02634521573781967,-0.009580078534781933,
7.579,-0.014968873001635075,0,-0.013172607868909836,
7.583,-0.014968873001635075,0,-0.013172607868909836,
7.588,-0.014968873001635075,0,-0.013172607868909836,
7.593,-0.014968873001635075,0,-0.013172607868909836,
7.598,-0.014968873001635075,0,-0.013172607868909836,
7.603,-0.014968873001635075,0,-0.013172607868909836,
7.608,-0.014968873001635075,0,-0.013172607868909836,
7.613,-0.014968873001635075,0,-0.013172607868909836,
7.618,-0.014968873001635075,0,-0.013172607868909836,
7.622,-0.014968873001635075,0,-0.013172607868909836,
7.627,-0.010178833268582821,-0.014370117336511612,0.002395019633695483,
7.631,-0.010178833268582821,-0.014370117336511612,0.002395019633695483,
7.636,-0.010178833268582821,-0.014370117336511612,0.002395019633695483,
7.641,-0.010178833268582821,-0.014370117336511612,0.002395019633695483,
7.646,-0.010178833268582821,-0.014370117336511612,0.002395019633695483,
7.651,-0.010178833268582821,-0.014370117336511612,0.002395019633695483,
7.657,-0.010178833268582821,-0.014370117336511612,0.002395019633695483,
7.663,-0.010178833268582821,-0.014370117336511612,0.002395019633695483,
7.668,-0.010178833268582821,-0.014370117336511612,0.002395019633695483,
7.673,-0.010178833268582821,-0.014370117336511612,0.002395019633695483,
7.678,-0.011376343667507172,-0.020357666537165642,0.007185058668255806,
7.682,-0.011376343667507172,-0.020357666537165642,0.007185058668255806,
7.687,-0.011376343667507172,-0.020357666537165642,0.007185058668255806,
7.692,-0.011376343667507172,-0.020357666537165642,0.007185058668255806,
7.697,-0.011376343667507172,-0.020357666537165642,0.007185058668255806,
7.703,-0.011376343667507172,-0.020357666537165642,0.007185058668255806,
7.708,-0.011376343667507172,-0.020357666537165642,0.007185058668255806,
7.713,-0.011376343667507172,-0.020357666537165642,0.007185058668255806,
7.717,-0.011376343667507172,-0.020357666537165642,0.007185058668255806,
7.723,-0.011376343667507172,-0.020357666537165642,0.007185058668255806,
7.728,-0.02694397047162056,-0.010777588002383709,-0.004790039267390966,
7.732,-0.02694397047162056,-0.010777588002383709,-0.004790039267390966,
7.737,-0.02694397047162056,-0.010777588002383709,-0.004790039267390966,
7.742,-0.02694397047162056,-0.010777588002383709,-0.004790039267390966,
7.747,-0.02694397047162056,-0.010777588002383709,-0.004790039267390966,
7.752,-0.02694397047162056,-0.010777588002383709,-0.004790039267390966,
7.757,-0.02694397047162056,-0.010777588002383709,-0.004790039267390966,
7.761,-0.02694397047162056,-0.010777588002383709,-0.004790039267390966,
7.765,-0.02694397047162056,-0.010777588002383709,-0.004790039267390966,
7.771,-0.02694397047162056,-0.010777588002383709,-0.004790039267390966,
7.776,-0.013771362602710724,-0.01796264760196209,0.016765138134360313,
7.78,-0.013771362602710724,-0.01796264760196209,0.016765138134360313,
7.784,-0.013771362602710724,-0.01796264760196209,0.016765138134360313,
7.789,-0.013771362602710724,-0.01796264760196209,0.016765138134360313,
7.793,-0.013771362602710724,-0.01796264760196209,0.016765138134360313,
7.797,-0.013771362602710724,-0.01796264760196209,0.016765138134360313,
7.802,-0.013771362602710724,-0.01796264760196209,0.016765138134360313,
7.807,-0.013771362602710724,-0.01796264760196209,0.016765138134360313,
7.812,-0.013771362602710724,-0.01796264760196209,0.016765138134360313,
7.816,-0.013771362602710724,-0.01796264760196209,0.016765138134360313,
7.821,-0.013771362602710724,-0.01796264760196209,0.016765138134360313,
7.825,-0.018561402335762978,-0.014370117336511612,-0.00598754920065403,
7.83,-0.018561402335762978,-0.014370117336511612,-0.00598754920065403,
7.834,-0.018561402335762978,-0.014370117336511612,-0.00598754920065403,
7.839,-0.018561402335762978,-0.014370117336511612,-0.00598754920065403,
7.844,-0.018561402335762978,-0.014370117336511612,-0.00598754920065403,
7.848,-0.018561402335762978,-0.014370117336511612,-0.00598754920065403,
7.852,-0.018561402335762978,-0.014370117336511612,-0.00598754920065403,
7.856,-0.018561402335762978,-0.014370117336511612,-0.00598754920065403,
7.861,-0.018561402335762978,-0.014370117336511612,-0.00598754920065403,
7.865,-0.018561402335762978,-0.014370117336511612,-0.00598754920065403,
7.87,-0.018561402335762978,-0.014370117336511612,-0.00598754920065403,
7.874,-0.018561402335762978,-0.014370117336511612,-0.00598754920065403,
7.878,-0.018561402335762978,-0.0011975098168477416,0.016765138134360313,
7.883,-0.018561402335762978,-0.0011975098168477416,0.016765138134360313,
7.889,-0.018561402335762978,-0.0011975098168477416,0.016765138134360313,
7.894,-0.018561402335762978,-0.0011975098168477416,0.016765138134360313,
7.898,-0.018561402335762978,-0.0011975098168477416,0.016765138134360313,
7.903,-0.018561402335762978,-0.0011975098168477416,0.016765138134360313,
7.907,-0.018561402335762978,-0.0011975098168477416,0.016765138134360313,
7.911,-0.018561402335762978,-0.0011975098168477416,0.016765138134360313,
7.917,-0.018561402335762978,-0.0011975098168477416,0.016765138134360313,
7.921,-0.018561402335762978,-0.0011975098168477416,0.016765138134360313,
7.925,0.0053887940011918545,-0.0347277857363224,-0.008382569067180157,
7.93,0.0053887940011918545,-0.0347277857363224,-0.008382569067180157,
7.934,0.0053887940011918545,-0.0347277857363224,-0.008382569067180157,
7.939,0.0053887940011918545,-0.0347277857363224,-0.008382569067180157,
7.945,0.0053887940011918545,-0.0347277857363224,-0.008382569067180157,
7.951,0.0053887940011918545,-0.0347277857363224,-0.008382569067180157,
7.957,0.0053887940011918545,-0.0347277857363224,-0.008382569067180157,
7.961,0.0053887940011918545,-0.0347277857363224,-0.008382569067180157,
7.965,0.0053887940011918545,-0.0347277857363224,-0.008382569067180157,
7.97,0.0053887940011918545,-0.0347277857363224,-0.008382569067180157,
7.974,-0.030536500737071037,-0.016765138134360313,0.00598754920065403,
7.979,-0.030536500737071037,-0.016765138134360313,0.00598754920065403,
7.983,-0.030536500737071037,-0.016765138134360313,0.00598754920065403,
7.989,-0.030536500737071037,-0.016765138134360313,0.00598754920065403,
7.994,-0.030536500737071037,-0.016765138134360313,0.00598754920065403,
7.998,-0.030536500737071037,-0.016765138134360313,0.00598754920065403,
8.002,-0.030536500737071037,-0.016765138134360313,0.00598754920065403,
8.007,-0.030536500737071037,-0.016765138134360313,0.00598754920065403,
8.012,-0.030536500737071037,-0.016765138134360313,0.00598754920065403,
8.016,-0.030536500737071037,-0.016765138134360313,0.00598754920065403,
8.022,-0.030536500737071037,-0.016765138134360313,0.00598754920065403,
8.026,-0.02335144206881523,0.022752687335014343,0.028740234673023224,
8.031,-0.02335144206881523,0.022752687335014343,0.028740234673023224,
8.037,-0.02335144206881523,0.022752687335014343,0.028740234673023224,
8.042,-0.02335144206881523,0.022752687335014343,0.028740234673023224,
8.047,-0.02335144206881523,0.022752687335014343,0.028740234673023224,
8.052,-0.02335144206881523,0.022752687335014343,0.028740234673023224,
8.058,-0.02335144206881523,0.022752687335014343,0.028740234673023224,
8.062,-0.02335144206881523,0.022752687335014343,0.028740234673023224,
8.067,-0.02335144206881523,0.022752687335014343,0.028740234673023224,
8.072,-0.02335144206881523,0.022752687335014343,0.028740234673023224,
8.076,-0.007783813867717981,-0.0011975098168477416,0.022752687335014343,
8.08,-0.007783813867717981,-0.0011975098168477416,0.022752687335014343,
8.085,-0.007783813867717981,-0.0011975098168477416,0.022752687335014343,
8.09,-0.007783813867717981,-0.0011975098168477416,0.022752687335014343,
8.094,-0.007783813867717981,-0.0011975098168477416,0.022752687335014343,
